participant_id,random_id,repeat_false_alarm_rate,repeat_hit_rate,trial_index,trial_number,time_elapsed,trial_phase,trial_kind,response,rt,confidence_response,correct,is_right,choice_images,correct_image,choice,experiment_purpose,Q1,technical_issues
manatee,p3duj2aujg2,0,0.9,349,1,1372371,Test,exemplar,1,1599,5,true,1,"[""stimuli\\EXEMPLAR\\USED\\Ewheelchair2.jpg"",""stimuli\\EXEMPLAR\\USED\\Ewheelchair1.jpg""]",stimuli\EXEMPLAR\USED\Ewheelchair1.jpg,stimuli\EXEMPLAR\USED\Ewheelchair1.jpg,testing subjects on their ability to recall a long list of images,"shape, colour, size, and category of object",
manatee,p3duj2aujg2,0,0.9,351,2,1375171,Test,state,0,876,5,true,1,"[""stimuli\\STATE\\USED\\Sapple1.jpg"",""stimuli\\STATE\\USED\\Sapple2.jpg""]",stimuli\STATE\USED\Sapple1.jpg,stimuli\STATE\USED\Sapple1.jpg,testing subjects on their ability to recall a long list of images,"shape, colour, size, and category of object",
manatee,p3duj2aujg2,0,0.9,353,3,1378242,Test,state,1,1654,5,true,1,"[""stimuli\\STATE\\USED\\Sbrie2.JPG"",""stimuli\\STATE\\USED\\Sbrie1.JPG""]",stimuli\STATE\USED\Sbrie1.JPG,stimuli\STATE\USED\Sbrie1.JPG,testing subjects on their ability to recall a long list of images,"shape, colour, size, and category of object",
manatee,p3duj2aujg2,0,0.9,355,4,1383217,Test,state,0,2162,5,true,1,"[""stimuli\\STATE\\USED\\Srhino2.jpg"",""stimuli\\STATE\\USED\\Srhino1.jpg""]",stimuli\STATE\USED\Srhino2.jpg,stimuli\STATE\USED\Srhino2.jpg,testing subjects on their ability to recall a long list of images,"shape, colour, size, and category of object",
manatee,p3duj2aujg2,0,0.9,357,5,1386673,Test,exemplar,0,1001,5,true,1,"[""stimuli\\EXEMPLAR\\USED\\Ebrick2.jpg"",""stimuli\\EXEMPLAR\\USED\\Ebrick1.jpg""]",stimuli\EXEMPLAR\USED\Ebrick2.jpg,stimuli\EXEMPLAR\USED\Ebrick2.jpg,testing subjects on their ability to recall a long list of images,"shape, colour, size, and category of object",
manatee,p3duj2aujg2,0,0.9,359,6,1389233,Test,exemplar,0,1162,5,true,1,"[""stimuli\\EXEMPLAR\\USED\\Espraybottle1.jpg"",""stimuli\\EXEMPLAR\\USED\\Espraybottle2.jpg""]",stimuli\EXEMPLAR\USED\Espraybottle1.jpg,stimuli\EXEMPLAR\USED\Espraybottle1.jpg,testing subjects on their ability to recall a long list of images,"shape, colour, size, and category of object",
manatee,p3duj2aujg2,0,0.9,361,7,1391462,Test,state,0,934,5,true,1,"[""stimuli\\STATE\\USED\\Sbriefcasemetal1.JPG"",""stimuli\\STATE\\USED\\Sbriefcasemetal2.JPG""]",stimuli\STATE\USED\Sbriefcasemetal1.JPG,stimuli\STATE\USED\Sbriefcasemetal1.JPG,testing subjects on their ability to recall a long list of images,"shape, colour, size, and category of object",
manatee,p3duj2aujg2,0,0.9,363,8,1395658,Test,state,0,2929,2,false,0,"[""stimuli\\STATE\\USED\\Sdrum1.jpg"",""stimuli\\STATE\\USED\\Sdrum2.jpg""]",stimuli\STATE\USED\Sdrum2.jpg,stimuli\STATE\USED\Sdrum1.jpg,testing subjects on their ability to recall a long list of images,"shape, colour, size, and category of object",
manatee,p3duj2aujg2,0,0.9,365,9,1401492,Test,state,1,1604,5,true,1,"[""stimuli\\STATE\\USED\\Sseats1.jpg"",""stimuli\\STATE\\USED\\Sseats2.jpg""]",stimuli\STATE\USED\Sseats2.jpg,stimuli\STATE\USED\Sseats2.jpg,testing subjects on their ability to recall a long list of images,"shape, colour, size, and category of object",
manatee,p3duj2aujg2,0,0.9,367,10,1403736,Test,exemplar,0,953,5,true,1,"[""stimuli\\EXEMPLAR\\USED\\Ewineglass2.jpg"",""stimuli\\EXEMPLAR\\USED\\Ewineglass1.jpg""]",stimuli\EXEMPLAR\USED\Ewineglass2.jpg,stimuli\EXEMPLAR\USED\Ewineglass2.jpg,testing subjects on their ability to recall a long list of images,"shape, colour, size, and category of object",
manatee,p3duj2aujg2,0,0.9,369,11,1406860,Test,state,1,1619,5,true,1,"[""stimuli\\STATE\\USED\\Snapkins1.jpg"",""stimuli\\STATE\\USED\\Snapkins2.jpg""]",stimuli\STATE\USED\Snapkins2.jpg,stimuli\STATE\USED\Snapkins2.jpg,testing subjects on their ability to recall a long list of images,"shape, colour, size, and category of object",
manatee,p3duj2aujg2,0,0.9,371,12,1414776,Test,state,1,6636,2,true,1,"[""stimuli\\STATE\\USED\\Sdishes2.JPG"",""stimuli\\STATE\\USED\\Sdishes1.JPG""]",stimuli\STATE\USED\Sdishes1.JPG,stimuli\STATE\USED\Sdishes1.JPG,testing subjects on their ability to recall a long list of images,"shape, colour, size, and category of object",
manatee,p3duj2aujg2,0,0.9,373,13,1419485,Test,state,0,1390,5,false,0,"[""stimuli\\STATE\\USED\\Sbook2.JPG"",""stimuli\\STATE\\USED\\Sbook1.JPG""]",stimuli\STATE\USED\Sbook1.JPG,stimuli\STATE\USED\Sbook2.JPG,testing subjects on their ability to recall a long list of images,"shape, colour, size, and category of object",
manatee,p3duj2aujg2,0,0.9,375,14,1421806,Test,exemplar,1,858,5,true,1,"[""stimuli\\EXEMPLAR\\USED\\Ecalculator2.jpg"",""stimuli\\EXEMPLAR\\USED\\Ecalculator1.jpg""]",stimuli\EXEMPLAR\USED\Ecalculator1.jpg,stimuli\EXEMPLAR\USED\Ecalculator1.jpg,testing subjects on their ability to recall a long list of images,"shape, colour, size, and category of object",
manatee,p3duj2aujg2,0,0.9,377,15,1426403,Test,state,1,3319,4,true,1,"[""stimuli\\STATE\\USED\\Sdie2.jpg"",""stimuli\\STATE\\USED\\Sdie1.jpg""]",stimuli\STATE\USED\Sdie1.jpg,stimuli\STATE\USED\Sdie1.jpg,testing subjects on their ability to recall a long list of images,"shape, colour, size, and category of object",
manatee,p3duj2aujg2,0,0.9,379,16,1431038,Test,exemplar,0,1289,5,true,1,"[""stimuli\\EXEMPLAR\\USED\\Ecamera1.jpg"",""stimuli\\EXEMPLAR\\USED\\Ecamera2.jpg""]",stimuli\EXEMPLAR\USED\Ecamera1.jpg,stimuli\EXEMPLAR\USED\Ecamera1.jpg,testing subjects on their ability to recall a long list of images,"shape, colour, size, and category of object",
manatee,p3duj2aujg2,0,0.9,381,17,1433734,Test,state,1,1442,5,true,1,"[""stimuli\\STATE\\USED\\Sscissors1.JPG"",""stimuli\\STATE\\USED\\Sscissors2.JPG""]",stimuli\STATE\USED\Sscissors2.JPG,stimuli\STATE\USED\Sscissors2.JPG,testing subjects on their ability to recall a long list of images,"shape, colour, size, and category of object",
manatee,p3duj2aujg2,0,0.9,383,18,1436474,Test,state,0,1493,5,true,1,"[""stimuli\\STATE\\USED\\Sphone2.JPG"",""stimuli\\STATE\\USED\\Sphone1.JPG""]",stimuli\STATE\USED\Sphone2.JPG,stimuli\STATE\USED\Sphone2.JPG,testing subjects on their ability to recall a long list of images,"shape, colour, size, and category of object",
manatee,p3duj2aujg2,0,0.9,385,19,1438705,Test,state,0,1049,5,true,1,"[""stimuli\\STATE\\USED\\Sboxwhite1.jpg"",""stimuli\\STATE\\USED\\Sboxwhite2.jpg""]",stimuli\STATE\USED\Sboxwhite1.jpg,stimuli\STATE\USED\Sboxwhite1.jpg,testing subjects on their ability to recall a long list of images,"shape, colour, size, and category of object",
manatee,p3duj2aujg2,0,0.9,387,20,1440868,Test,exemplar,0,1056,5,true,1,"[""stimuli\\EXEMPLAR\\USED\\Epliers2.jpg"",""stimuli\\EXEMPLAR\\USED\\Epliers1.jpg""]",stimuli\EXEMPLAR\USED\Epliers2.jpg,stimuli\EXEMPLAR\USED\Epliers2.jpg,testing subjects on their ability to recall a long list of images,"shape, colour, size, and category of object",
manatee,p3duj2aujg2,0,0.9,389,21,1445093,Test,state,1,2094,5,true,1,"[""stimuli\\STATE\\USED\\Shandmirror2.jpg"",""stimuli\\STATE\\USED\\Shandmirror1.jpg""]",stimuli\STATE\USED\Shandmirror1.jpg,stimuli\STATE\USED\Shandmirror1.jpg,testing subjects on their ability to recall a long list of images,"shape, colour, size, and category of object",
manatee,p3duj2aujg2,0,0.9,391,22,1447709,Test,exemplar,0,918,5,true,1,"[""stimuli\\EXEMPLAR\\USED\\Eguitar2.jpg"",""stimuli\\EXEMPLAR\\USED\\Eguitar1.jpg""]",stimuli\EXEMPLAR\USED\Eguitar2.jpg,stimuli\EXEMPLAR\USED\Eguitar2.jpg,testing subjects on their ability to recall a long list of images,"shape, colour, size, and category of object",
manatee,p3duj2aujg2,0,0.9,393,23,1452986,Test,exemplar,0,3947,2,true,1,"[""stimuli\\EXEMPLAR\\USED\\Eframe1.jpg"",""stimuli\\EXEMPLAR\\USED\\Eframe2.jpg""]",stimuli\EXEMPLAR\USED\Eframe1.jpg,stimuli\EXEMPLAR\USED\Eframe1.jpg,testing subjects on their ability to recall a long list of images,"shape, colour, size, and category of object",
manatee,p3duj2aujg2,0,0.9,395,24,1455524,Test,exemplar,0,1096,5,true,1,"[""stimuli\\EXEMPLAR\\USED\\Epeppers2.jpg"",""stimuli\\EXEMPLAR\\USED\\Epeppers1.jpg""]",stimuli\EXEMPLAR\USED\Epeppers2.jpg,stimuli\EXEMPLAR\USED\Epeppers2.jpg,testing subjects on their ability to recall a long list of images,"shape, colour, size, and category of object",
manatee,p3duj2aujg2,0,0.9,397,25,1458064,Test,exemplar,1,1236,5,true,1,"[""stimuli\\EXEMPLAR\\USED\\Emoney2.jpg"",""stimuli\\EXEMPLAR\\USED\\Emoney1.jpg""]",stimuli\EXEMPLAR\USED\Emoney1.jpg,stimuli\EXEMPLAR\USED\Emoney1.jpg,testing subjects on their ability to recall a long list of images,"shape, colour, size, and category of object",
manatee,p3duj2aujg2,0,0.9,399,26,1464073,Test,state,0,2662,3,true,1,"[""stimuli\\STATE\\USED\\Spatiotable2.jpg"",""stimuli\\STATE\\USED\\Spatiotable1.jpg""]",stimuli\STATE\USED\Spatiotable2.jpg,stimuli\STATE\USED\Spatiotable2.jpg,testing subjects on their ability to recall a long list of images,"shape, colour, size, and category of object",
manatee,p3duj2aujg2,0,0.9,401,27,1466730,Test,exemplar,1,927,5,true,1,"[""stimuli\\EXEMPLAR\\USED\\Eremover1.jpg"",""stimuli\\EXEMPLAR\\USED\\Eremover2.jpg""]",stimuli\EXEMPLAR\USED\Eremover2.jpg,stimuli\EXEMPLAR\USED\Eremover2.jpg,testing subjects on their ability to recall a long list of images,"shape, colour, size, and category of object",
manatee,p3duj2aujg2,0,0.9,403,28,1472157,Test,exemplar,0,4156,5,true,1,"[""stimuli\\EXEMPLAR\\USED\\Epiano2.jpg"",""stimuli\\EXEMPLAR\\USED\\Epiano1.jpg""]",stimuli\EXEMPLAR\USED\Epiano2.jpg,stimuli\EXEMPLAR\USED\Epiano2.jpg,testing subjects on their ability to recall a long list of images,"shape, colour, size, and category of object",
manatee,p3duj2aujg2,0,0.9,405,29,1474733,Test,state,1,1367,1,false,0,"[""stimuli\\STATE\\USED\\Spestle1.jpg"",""stimuli\\STATE\\USED\\Spestle2.jpg""]",stimuli\STATE\USED\Spestle1.jpg,stimuli\STATE\USED\Spestle2.jpg,testing subjects on their ability to recall a long list of images,"shape, colour, size, and category of object",
manatee,p3duj2aujg2,0,0.9,407,30,1481647,Test,state,1,3677,1,false,0,"[""stimuli\\STATE\\USED\\Sdryer1.jpg"",""stimuli\\STATE\\USED\\Sdryer2.jpg""]",stimuli\STATE\USED\Sdryer1.jpg,stimuli\STATE\USED\Sdryer2.jpg,testing subjects on their ability to recall a long list of images,"shape, colour, size, and category of object",
manatee,p3duj2aujg2,0,0.9,409,31,1484603,Test,exemplar,1,1434,5,true,1,"[""stimuli\\EXEMPLAR\\USED\\Elei1.jpg"",""stimuli\\EXEMPLAR\\USED\\Elei2.jpg""]",stimuli\EXEMPLAR\USED\Elei2.jpg,stimuli\EXEMPLAR\USED\Elei2.jpg,testing subjects on their ability to recall a long list of images,"shape, colour, size, and category of object",
manatee,p3duj2aujg2,0,0.9,411,32,1487631,Test,state,1,1207,5,false,0,"[""stimuli\\STATE\\USED\\Schinesefoodbox2.jpg"",""stimuli\\STATE\\USED\\Schinesefoodbox1.jpg""]",stimuli\STATE\USED\Schinesefoodbox2.jpg,stimuli\STATE\USED\Schinesefoodbox1.jpg,testing subjects on their ability to recall a long list of images,"shape, colour, size, and category of object",
manatee,p3duj2aujg2,0,0.9,413,33,1490812,Test,exemplar,1,1346,5,true,1,"[""stimuli\\EXEMPLAR\\USED\\Ekayak2.jpg"",""stimuli\\EXEMPLAR\\USED\\Ekayak1.jpg""]",stimuli\EXEMPLAR\USED\Ekayak1.jpg,stimuli\EXEMPLAR\USED\Ekayak1.jpg,testing subjects on their ability to recall a long list of images,"shape, colour, size, and category of object",
manatee,p3duj2aujg2,0,0.9,415,34,1492768,Test,state,1,784,5,true,1,"[""stimuli\\STATE\\USED\\Sschoolbag1.JPG"",""stimuli\\STATE\\USED\\Sschoolbag2.JPG""]",stimuli\STATE\USED\Sschoolbag2.JPG,stimuli\STATE\USED\Sschoolbag2.JPG,testing subjects on their ability to recall a long list of images,"shape, colour, size, and category of object",
manatee,p3duj2aujg2,0,0.9,417,35,1495624,Test,exemplar,1,1667,5,true,1,"[""stimuli\\EXEMPLAR\\USED\\Esunglasses1.jpg"",""stimuli\\EXEMPLAR\\USED\\Esunglasses2.jpg""]",stimuli\EXEMPLAR\USED\Esunglasses2.jpg,stimuli\EXEMPLAR\USED\Esunglasses2.jpg,testing subjects on their ability to recall a long list of images,"shape, colour, size, and category of object",
manatee,p3duj2aujg2,0,0.9,419,36,1499223,Test,exemplar,0,2407,5,true,1,"[""stimuli\\EXEMPLAR\\USED\\Eglobe2.jpg"",""stimuli\\EXEMPLAR\\USED\\Eglobe1.jpg""]",stimuli\EXEMPLAR\USED\Eglobe2.jpg,stimuli\EXEMPLAR\USED\Eglobe2.jpg,testing subjects on their ability to recall a long list of images,"shape, colour, size, and category of object",
manatee,p3duj2aujg2,0,0.9,421,37,1501185,Test,state,0,874,5,true,1,"[""stimuli\\STATE\\USED\\Spolarbear2.jpg"",""stimuli\\STATE\\USED\\Spolarbear1.jpg""]",stimuli\STATE\USED\Spolarbear2.jpg,stimuli\STATE\USED\Spolarbear2.jpg,testing subjects on their ability to recall a long list of images,"shape, colour, size, and category of object",
manatee,p3duj2aujg2,0,0.9,423,38,1503810,Test,exemplar,0,1272,5,true,1,"[""stimuli\\EXEMPLAR\\USED\\Echopsticks1.jpg"",""stimuli\\EXEMPLAR\\USED\\Echopsticks2.jpg""]",stimuli\EXEMPLAR\USED\Echopsticks1.jpg,stimuli\EXEMPLAR\USED\Echopsticks1.jpg,testing subjects on their ability to recall a long list of images,"shape, colour, size, and category of object",
manatee,p3duj2aujg2,0,0.9,425,39,1507353,Test,state,1,1469,4,true,1,"[""stimuli\\STATE\\USED\\Sbooks2.JPG"",""stimuli\\STATE\\USED\\Sbooks1.JPG""]",stimuli\STATE\USED\Sbooks1.JPG,stimuli\STATE\USED\Sbooks1.JPG,testing subjects on their ability to recall a long list of images,"shape, colour, size, and category of object",
manatee,p3duj2aujg2,0,0.9,427,40,1513603,Test,exemplar,0,1861,4,false,0,"[""stimuli\\EXEMPLAR\\USED\\Emicroscope2.jpg"",""stimuli\\EXEMPLAR\\USED\\Emicroscope1.jpg""]",stimuli\EXEMPLAR\USED\Emicroscope1.jpg,stimuli\EXEMPLAR\USED\Emicroscope2.jpg,testing subjects on their ability to recall a long list of images,"shape, colour, size, and category of object",
manatee,p3duj2aujg2,0,0.9,429,41,1516516,Test,exemplar,0,1707,2,false,0,"[""stimuli\\EXEMPLAR\\USED\\Etoyplane2.jpg"",""stimuli\\EXEMPLAR\\USED\\Etoyplane1.jpg""]",stimuli\EXEMPLAR\USED\Etoyplane1.jpg,stimuli\EXEMPLAR\USED\Etoyplane2.jpg,testing subjects on their ability to recall a long list of images,"shape, colour, size, and category of object",
manatee,p3duj2aujg2,0,0.9,431,42,1519141,Test,exemplar,1,886,5,true,1,"[""stimuli\\EXEMPLAR\\USED\\Eswimsuit1.jpg"",""stimuli\\EXEMPLAR\\USED\\Eswimsuit2.jpg""]",stimuli\EXEMPLAR\USED\Eswimsuit2.jpg,stimuli\EXEMPLAR\USED\Eswimsuit2.jpg,testing subjects on their ability to recall a long list of images,"shape, colour, size, and category of object",
manatee,p3duj2aujg2,0,0.9,433,43,1521158,Test,state,1,991,5,true,1,"[""stimuli\\STATE\\USED\\Seggplant2.jpg"",""stimuli\\STATE\\USED\\Seggplant1.jpg""]",stimuli\STATE\USED\Seggplant1.jpg,stimuli\STATE\USED\Seggplant1.jpg,testing subjects on their ability to recall a long list of images,"shape, colour, size, and category of object",
manatee,p3duj2aujg2,0,0.9,435,44,1523795,Test,state,1,1623,5,false,0,"[""stimuli\\STATE\\USED\\Speppers2.jpg"",""stimuli\\STATE\\USED\\Speppers1.jpg""]",stimuli\STATE\USED\Speppers2.jpg,stimuli\STATE\USED\Speppers1.jpg,testing subjects on their ability to recall a long list of images,"shape, colour, size, and category of object",
manatee,p3duj2aujg2,0,0.9,437,45,1528007,Test,state,0,2810,4,true,1,"[""stimuli\\STATE\\USED\\Scateringtray1.jpg"",""stimuli\\STATE\\USED\\Scateringtray2.jpg""]",stimuli\STATE\USED\Scateringtray1.jpg,stimuli\STATE\USED\Scateringtray1.jpg,testing subjects on their ability to recall a long list of images,"shape, colour, size, and category of object",
manatee,p3duj2aujg2,0,0.9,439,46,1531290,Test,exemplar,0,980,5,true,1,"[""stimuli\\EXEMPLAR\\USED\\Elog1.jpg"",""stimuli\\EXEMPLAR\\USED\\Elog2.jpg""]",stimuli\EXEMPLAR\USED\Elog1.jpg,stimuli\EXEMPLAR\USED\Elog1.jpg,testing subjects on their ability to recall a long list of images,"shape, colour, size, and category of object",
manatee,p3duj2aujg2,0,0.9,441,47,1534317,Test,state,1,1143,5,true,1,"[""stimuli\\STATE\\USED\\Sstoplight2.jpg"",""stimuli\\STATE\\USED\\Sstoplight1.jpg""]",stimuli\STATE\USED\Sstoplight1.jpg,stimuli\STATE\USED\Sstoplight1.jpg,testing subjects on their ability to recall a long list of images,"shape, colour, size, and category of object",
manatee,p3duj2aujg2,0,0.9,443,48,1537190,Test,exemplar,1,1108,5,true,1,"[""stimuli\\EXEMPLAR\\USED\\Emuffler2.jpg"",""stimuli\\EXEMPLAR\\USED\\Emuffler1.jpg""]",stimuli\EXEMPLAR\USED\Emuffler1.jpg,stimuli\EXEMPLAR\USED\Emuffler1.jpg,testing subjects on their ability to recall a long list of images,"shape, colour, size, and category of object",
manatee,p3duj2aujg2,0,0.9,445,49,1540130,Test,exemplar,0,1668,4,true,1,"[""stimuli\\EXEMPLAR\\USED\\Etrowel2.jpg"",""stimuli\\EXEMPLAR\\USED\\Etrowel1.jpg""]",stimuli\EXEMPLAR\USED\Etrowel2.jpg,stimuli\EXEMPLAR\USED\Etrowel2.jpg,testing subjects on their ability to recall a long list of images,"shape, colour, size, and category of object",
manatee,p3duj2aujg2,0,0.9,447,50,1545154,Test,exemplar,1,3706,1,false,0,"[""stimuli\\EXEMPLAR\\USED\\Eplate1.jpg"",""stimuli\\EXEMPLAR\\USED\\Eplate2.jpg""]",stimuli\EXEMPLAR\USED\Eplate1.jpg,stimuli\EXEMPLAR\USED\Eplate2.jpg,testing subjects on their ability to recall a long list of images,"shape, colour, size, and category of object",
camel,p3zegmnxubt,0.00666666666666671,0.9,349,1,468902,Test,state,1,1469,5,true,1,"[""stimuli\\STATE\\USED\\Sstoplight1.jpg"",""stimuli\\STATE\\USED\\Sstoplight2.jpg""]",stimuli\STATE\USED\Sstoplight2.jpg,stimuli\STATE\USED\Sstoplight2.jpg,I think items you saw repeated you would probably say you have a better recollection for.,"Certain positions, certain facets pop out (i.e. a color, pointed lines or shapes).",No.
camel,p3zegmnxubt,0.00666666666666671,0.9,351,2,474100,Test,state,1,1775,5,true,1,"[""stimuli\\STATE\\USED\\Slaptop2.JPG"",""stimuli\\STATE\\USED\\Slaptop1.JPG""]",stimuli\STATE\USED\Slaptop1.JPG,stimuli\STATE\USED\Slaptop1.JPG,I think items you saw repeated you would probably say you have a better recollection for.,"Certain positions, certain facets pop out (i.e. a color, pointed lines or shapes).",No.
camel,p3zegmnxubt,0.00666666666666671,0.9,353,3,476723,Test,state,1,804,5,true,1,"[""stimuli\\STATE\\USED\\Sredcabbage1.jpg"",""stimuli\\STATE\\USED\\Sredcabbage2.jpg""]",stimuli\STATE\USED\Sredcabbage2.jpg,stimuli\STATE\USED\Sredcabbage2.jpg,I think items you saw repeated you would probably say you have a better recollection for.,"Certain positions, certain facets pop out (i.e. a color, pointed lines or shapes).",No.
camel,p3zegmnxubt,0.00666666666666671,0.9,355,4,482429,Test,exemplar,0,4041,2,true,1,"[""stimuli\\EXEMPLAR\\USED\\Eremote2.jpg"",""stimuli\\EXEMPLAR\\USED\\Eremote1.jpg""]",stimuli\EXEMPLAR\USED\Eremote2.jpg,stimuli\EXEMPLAR\USED\Eremote2.jpg,I think items you saw repeated you would probably say you have a better recollection for.,"Certain positions, certain facets pop out (i.e. a color, pointed lines or shapes).",No.
camel,p3zegmnxubt,0.00666666666666671,0.9,357,5,488447,Test,state,1,3955,1,true,1,"[""stimuli\\STATE\\USED\\Shairbrush1.jpg"",""stimuli\\STATE\\USED\\Shairbrush2.jpg""]",stimuli\STATE\USED\Shairbrush2.jpg,stimuli\STATE\USED\Shairbrush2.jpg,I think items you saw repeated you would probably say you have a better recollection for.,"Certain positions, certain facets pop out (i.e. a color, pointed lines or shapes).",No.
camel,p3zegmnxubt,0.00666666666666671,0.9,359,6,491658,Test,state,1,1302,5,true,1,"[""stimuli\\STATE\\USED\\Sdoughhands2.jpg"",""stimuli\\STATE\\USED\\Sdoughhands1.jpg""]",stimuli\STATE\USED\Sdoughhands1.jpg,stimuli\STATE\USED\Sdoughhands1.jpg,I think items you saw repeated you would probably say you have a better recollection for.,"Certain positions, certain facets pop out (i.e. a color, pointed lines or shapes).",No.
camel,p3zegmnxubt,0.00666666666666671,0.9,361,7,494485,Test,exemplar,1,1148,5,true,1,"[""stimuli\\EXEMPLAR\\USED\\Etrophy1.jpg"",""stimuli\\EXEMPLAR\\USED\\Etrophy2.jpg""]",stimuli\EXEMPLAR\USED\Etrophy2.jpg,stimuli\EXEMPLAR\USED\Etrophy2.jpg,I think items you saw repeated you would probably say you have a better recollection for.,"Certain positions, certain facets pop out (i.e. a color, pointed lines or shapes).",No.
camel,p3zegmnxubt,0.00666666666666671,0.9,363,8,497227,Test,exemplar,1,1200,4,true,1,"[""stimuli\\EXEMPLAR\\USED\\Esantahat2.jpg"",""stimuli\\EXEMPLAR\\USED\\Esantahat1.jpg""]",stimuli\EXEMPLAR\USED\Esantahat1.jpg,stimuli\EXEMPLAR\USED\Esantahat1.jpg,I think items you saw repeated you would probably say you have a better recollection for.,"Certain positions, certain facets pop out (i.e. a color, pointed lines or shapes).",No.
camel,p3zegmnxubt,0.00666666666666671,0.9,365,9,502862,Test,state,1,3966,2,true,1,"[""stimuli\\STATE\\USED\\Sbabytoy1.JPG"",""stimuli\\STATE\\USED\\Sbabytoy2.JPG""]",stimuli\STATE\USED\Sbabytoy2.JPG,stimuli\STATE\USED\Sbabytoy2.JPG,I think items you saw repeated you would probably say you have a better recollection for.,"Certain positions, certain facets pop out (i.e. a color, pointed lines or shapes).",No.
camel,p3zegmnxubt,0.00666666666666671,0.9,367,10,505941,Test,state,0,1260,5,true,1,"[""stimuli\\STATE\\USED\\Sgrinder2.jpg"",""stimuli\\STATE\\USED\\Sgrinder1.jpg""]",stimuli\STATE\USED\Sgrinder2.jpg,stimuli\STATE\USED\Sgrinder2.jpg,I think items you saw repeated you would probably say you have a better recollection for.,"Certain positions, certain facets pop out (i.e. a color, pointed lines or shapes).",No.
camel,p3zegmnxubt,0.00666666666666671,0.9,369,11,509275,Test,exemplar,0,1758,2,true,1,"[""stimuli\\EXEMPLAR\\USED\\Egame2.jpg"",""stimuli\\EXEMPLAR\\USED\\Egame1.jpg""]",stimuli\EXEMPLAR\USED\Egame2.jpg,stimuli\EXEMPLAR\USED\Egame2.jpg,I think items you saw repeated you would probably say you have a better recollection for.,"Certain positions, certain facets pop out (i.e. a color, pointed lines or shapes).",No.
camel,p3zegmnxubt,0.00666666666666671,0.9,371,12,516062,Test,exemplar,1,5149,2,false,0,"[""stimuli\\EXEMPLAR\\USED\\Etoyhand2.jpg"",""stimuli\\EXEMPLAR\\USED\\Etoyhand1.jpg""]",stimuli\EXEMPLAR\USED\Etoyhand2.jpg,stimuli\EXEMPLAR\USED\Etoyhand1.jpg,I think items you saw repeated you would probably say you have a better recollection for.,"Certain positions, certain facets pop out (i.e. a color, pointed lines or shapes).",No.
camel,p3zegmnxubt,0.00666666666666671,0.9,373,13,519697,Test,state,1,1922,3,true,1,"[""stimuli\\STATE\\USED\\Spie2.JPG"",""stimuli\\STATE\\USED\\Spie1.JPG""]",stimuli\STATE\USED\Spie1.JPG,stimuli\STATE\USED\Spie1.JPG,I think items you saw repeated you would probably say you have a better recollection for.,"Certain positions, certain facets pop out (i.e. a color, pointed lines or shapes).",No.
camel,p3zegmnxubt,0.00666666666666671,0.9,375,14,523128,Test,exemplar,1,1417,1,true,1,"[""stimuli\\EXEMPLAR\\USED\\Eguitar2.jpg"",""stimuli\\EXEMPLAR\\USED\\Eguitar1.jpg""]",stimuli\EXEMPLAR\USED\Eguitar1.jpg,stimuli\EXEMPLAR\USED\Eguitar1.jpg,I think items you saw repeated you would probably say you have a better recollection for.,"Certain positions, certain facets pop out (i.e. a color, pointed lines or shapes).",No.
camel,p3zegmnxubt,0.00666666666666671,0.9,377,15,525498,Test,state,1,886,5,true,1,"[""stimuli\\STATE\\USED\\Spolarbear2.jpg"",""stimuli\\STATE\\USED\\Spolarbear1.jpg""]",stimuli\STATE\USED\Spolarbear1.jpg,stimuli\STATE\USED\Spolarbear1.jpg,I think items you saw repeated you would probably say you have a better recollection for.,"Certain positions, certain facets pop out (i.e. a color, pointed lines or shapes).",No.
camel,p3zegmnxubt,0.00666666666666671,0.9,379,16,529499,Test,state,0,2246,2,true,1,"[""stimuli\\STATE\\USED\\Sdishes2.JPG"",""stimuli\\STATE\\USED\\Sdishes1.JPG""]",stimuli\STATE\USED\Sdishes2.JPG,stimuli\STATE\USED\Sdishes2.JPG,I think items you saw repeated you would probably say you have a better recollection for.,"Certain positions, certain facets pop out (i.e. a color, pointed lines or shapes).",No.
camel,p3zegmnxubt,0.00666666666666671,0.9,381,17,533150,Test,exemplar,1,1236,4,true,1,"[""stimuli\\EXEMPLAR\\USED\\Ekayak2.jpg"",""stimuli\\EXEMPLAR\\USED\\Ekayak1.jpg""]",stimuli\EXEMPLAR\USED\Ekayak1.jpg,stimuli\EXEMPLAR\USED\Ekayak1.jpg,I think items you saw repeated you would probably say you have a better recollection for.,"Certain positions, certain facets pop out (i.e. a color, pointed lines or shapes).",No.
camel,p3zegmnxubt,0.00666666666666671,0.9,383,18,535603,Test,state,0,1003,5,true,1,"[""stimuli\\STATE\\USED\\Sseats1.jpg"",""stimuli\\STATE\\USED\\Sseats2.jpg""]",stimuli\STATE\USED\Sseats1.jpg,stimuli\STATE\USED\Sseats1.jpg,I think items you saw repeated you would probably say you have a better recollection for.,"Certain positions, certain facets pop out (i.e. a color, pointed lines or shapes).",No.
camel,p3zegmnxubt,0.00666666666666671,0.9,385,19,538056,Test,exemplar,0,863,5,true,1,"[""stimuli\\EXEMPLAR\\USED\\Eballoon2.jpg"",""stimuli\\EXEMPLAR\\USED\\Eballoon1.jpg""]",stimuli\EXEMPLAR\USED\Eballoon2.jpg,stimuli\EXEMPLAR\USED\Eballoon2.jpg,I think items you saw repeated you would probably say you have a better recollection for.,"Certain positions, certain facets pop out (i.e. a color, pointed lines or shapes).",No.
camel,p3zegmnxubt,0.00666666666666671,0.9,387,20,543669,Test,exemplar,1,3437,2,true,1,"[""stimuli\\EXEMPLAR\\USED\\Ebread2.jpg"",""stimuli\\EXEMPLAR\\USED\\Ebread1.jpg""]",stimuli\EXEMPLAR\USED\Ebread1.jpg,stimuli\EXEMPLAR\USED\Ebread1.jpg,I think items you saw repeated you would probably say you have a better recollection for.,"Certain positions, certain facets pop out (i.e. a color, pointed lines or shapes).",No.
camel,p3zegmnxubt,0.00666666666666671,0.9,389,21,547158,Test,exemplar,1,1970,4,true,1,"[""stimuli\\EXEMPLAR\\USED\\Econe2.jpg"",""stimuli\\EXEMPLAR\\USED\\Econe1.jpg""]",stimuli\EXEMPLAR\USED\Econe1.jpg,stimuli\EXEMPLAR\USED\Econe1.jpg,I think items you saw repeated you would probably say you have a better recollection for.,"Certain positions, certain facets pop out (i.e. a color, pointed lines or shapes).",No.
camel,p3zegmnxubt,0.00666666666666671,0.9,391,22,553399,Test,exemplar,1,1562,5,true,1,"[""stimuli\\EXEMPLAR\\USED\\Efishbowl1.jpg"",""stimuli\\EXEMPLAR\\USED\\Efishbowl2.jpg""]",stimuli\EXEMPLAR\USED\Efishbowl2.jpg,stimuli\EXEMPLAR\USED\Efishbowl2.jpg,I think items you saw repeated you would probably say you have a better recollection for.,"Certain positions, certain facets pop out (i.e. a color, pointed lines or shapes).",No.
camel,p3zegmnxubt,0.00666666666666671,0.9,393,23,556684,Test,exemplar,0,1710,4,true,1,"[""stimuli\\EXEMPLAR\\USED\\Ecamera2.jpg"",""stimuli\\EXEMPLAR\\USED\\Ecamera1.jpg""]",stimuli\EXEMPLAR\USED\Ecamera2.jpg,stimuli\EXEMPLAR\USED\Ecamera2.jpg,I think items you saw repeated you would probably say you have a better recollection for.,"Certain positions, certain facets pop out (i.e. a color, pointed lines or shapes).",No.
camel,p3zegmnxubt,0.00666666666666671,0.9,395,24,559805,Test,state,1,1489,3,true,1,"[""stimuli\\STATE\\USED\\Swaffleiron1.jpg"",""stimuli\\STATE\\USED\\Swaffleiron2.jpg""]",stimuli\STATE\USED\Swaffleiron2.jpg,stimuli\STATE\USED\Swaffleiron2.jpg,I think items you saw repeated you would probably say you have a better recollection for.,"Certain positions, certain facets pop out (i.e. a color, pointed lines or shapes).",No.
camel,p3zegmnxubt,0.00666666666666671,0.9,397,25,565492,Test,exemplar,1,2165,2,false,0,"[""stimuli\\EXEMPLAR\\USED\\Emitt2.jpg"",""stimuli\\EXEMPLAR\\USED\\Emitt1.jpg""]",stimuli\EXEMPLAR\USED\Emitt2.jpg,stimuli\EXEMPLAR\USED\Emitt1.jpg,I think items you saw repeated you would probably say you have a better recollection for.,"Certain positions, certain facets pop out (i.e. a color, pointed lines or shapes).",No.
camel,p3zegmnxubt,0.00666666666666671,0.9,399,26,575083,Test,state,1,7762,2,true,1,"[""stimuli\\STATE\\USED\\Sdishwasher2.jpg"",""stimuli\\STATE\\USED\\Sdishwasher1.jpg""]",stimuli\STATE\USED\Sdishwasher1.jpg,stimuli\STATE\USED\Sdishwasher1.jpg,I think items you saw repeated you would probably say you have a better recollection for.,"Certain positions, certain facets pop out (i.e. a color, pointed lines or shapes).",No.
camel,p3zegmnxubt,0.00666666666666671,0.9,401,27,578505,Test,exemplar,0,1843,2,true,1,"[""stimuli\\EXEMPLAR\\USED\\Eicecream2.jpg"",""stimuli\\EXEMPLAR\\USED\\Eicecream1.jpg""]",stimuli\EXEMPLAR\USED\Eicecream2.jpg,stimuli\EXEMPLAR\USED\Eicecream2.jpg,I think items you saw repeated you would probably say you have a better recollection for.,"Certain positions, certain facets pop out (i.e. a color, pointed lines or shapes).",No.
camel,p3zegmnxubt,0.00666666666666671,0.9,403,28,582767,Test,state,0,1774,4,true,1,"[""stimuli\\STATE\\USED\\Stiger2.jpg"",""stimuli\\STATE\\USED\\Stiger1.jpg""]",stimuli\STATE\USED\Stiger2.jpg,stimuli\STATE\USED\Stiger2.jpg,I think items you saw repeated you would probably say you have a better recollection for.,"Certain positions, certain facets pop out (i.e. a color, pointed lines or shapes).",No.
camel,p3zegmnxubt,0.00666666666666671,0.9,405,29,586079,Test,exemplar,0,842,5,true,1,"[""stimuli\\EXEMPLAR\\USED\\Estarfish1.jpg"",""stimuli\\EXEMPLAR\\USED\\Estarfish2.jpg""]",stimuli\EXEMPLAR\USED\Estarfish1.jpg,stimuli\EXEMPLAR\USED\Estarfish1.jpg,I think items you saw repeated you would probably say you have a better recollection for.,"Certain positions, certain facets pop out (i.e. a color, pointed lines or shapes).",No.
camel,p3zegmnxubt,0.00666666666666671,0.9,407,30,591796,Test,state,1,4162,2,true,1,"[""stimuli\\STATE\\USED\\Spumpkinpie1.jpg"",""stimuli\\STATE\\USED\\Spumpkinpie2.jpg""]",stimuli\STATE\USED\Spumpkinpie2.jpg,stimuli\STATE\USED\Spumpkinpie2.jpg,I think items you saw repeated you would probably say you have a better recollection for.,"Certain positions, certain facets pop out (i.e. a color, pointed lines or shapes).",No.
camel,p3zegmnxubt,0.00666666666666671,0.9,409,31,594899,Test,state,0,1480,4,true,1,"[""stimuli\\STATE\\USED\\Sbook2.JPG"",""stimuli\\STATE\\USED\\Sbook1.JPG""]",stimuli\STATE\USED\Sbook2.JPG,stimuli\STATE\USED\Sbook2.JPG,I think items you saw repeated you would probably say you have a better recollection for.,"Certain positions, certain facets pop out (i.e. a color, pointed lines or shapes).",No.
camel,p3zegmnxubt,0.00666666666666671,0.9,411,32,602120,Test,exemplar,1,5433,2,false,0,"[""stimuli\\EXEMPLAR\\USED\\Eholepunch2.jpg"",""stimuli\\EXEMPLAR\\USED\\Eholepunch1.jpg""]",stimuli\EXEMPLAR\USED\Eholepunch2.jpg,stimuli\EXEMPLAR\USED\Eholepunch1.jpg,I think items you saw repeated you would probably say you have a better recollection for.,"Certain positions, certain facets pop out (i.e. a color, pointed lines or shapes).",No.
camel,p3zegmnxubt,0.00666666666666671,0.9,413,33,606251,Test,exemplar,0,2337,2,false,0,"[""stimuli\\EXEMPLAR\\USED\\Emicroscope2.jpg"",""stimuli\\EXEMPLAR\\USED\\Emicroscope1.jpg""]",stimuli\EXEMPLAR\USED\Emicroscope1.jpg,stimuli\EXEMPLAR\USED\Emicroscope2.jpg,I think items you saw repeated you would probably say you have a better recollection for.,"Certain positions, certain facets pop out (i.e. a color, pointed lines or shapes).",No.
camel,p3zegmnxubt,0.00666666666666671,0.9,415,34,610129,Test,exemplar,1,1856,4,true,1,"[""stimuli\\EXEMPLAR\\USED\\Emedal2.jpg"",""stimuli\\EXEMPLAR\\USED\\Emedal1.jpg""]",stimuli\EXEMPLAR\USED\Emedal1.jpg,stimuli\EXEMPLAR\USED\Emedal1.jpg,I think items you saw repeated you would probably say you have a better recollection for.,"Certain positions, certain facets pop out (i.e. a color, pointed lines or shapes).",No.
camel,p3zegmnxubt,0.00666666666666671,0.9,417,35,613453,Test,exemplar,0,1628,4,true,1,"[""stimuli\\EXEMPLAR\\USED\\Ehoe1.jpg"",""stimuli\\EXEMPLAR\\USED\\Ehoe2.jpg""]",stimuli\EXEMPLAR\USED\Ehoe1.jpg,stimuli\EXEMPLAR\USED\Ehoe1.jpg,I think items you saw repeated you would probably say you have a better recollection for.,"Certain positions, certain facets pop out (i.e. a color, pointed lines or shapes).",No.
camel,p3zegmnxubt,0.00666666666666671,0.9,419,36,617860,Test,exemplar,1,2239,1,true,1,"[""stimuli\\EXEMPLAR\\USED\\Ebell2.jpg"",""stimuli\\EXEMPLAR\\USED\\Ebell1.jpg""]",stimuli\EXEMPLAR\USED\Ebell1.jpg,stimuli\EXEMPLAR\USED\Ebell1.jpg,I think items you saw repeated you would probably say you have a better recollection for.,"Certain positions, certain facets pop out (i.e. a color, pointed lines or shapes).",No.
camel,p3zegmnxubt,0.00666666666666671,0.9,421,37,620981,Test,state,1,1529,4,true,1,"[""stimuli\\STATE\\USED\\Spatiotable1.jpg"",""stimuli\\STATE\\USED\\Spatiotable2.jpg""]",stimuli\STATE\USED\Spatiotable2.jpg,stimuli\STATE\USED\Spatiotable2.jpg,I think items you saw repeated you would probably say you have a better recollection for.,"Certain positions, certain facets pop out (i.e. a color, pointed lines or shapes).",No.
camel,p3zegmnxubt,0.00666666666666671,0.9,423,38,626335,Test,state,0,3934,2,false,0,"[""stimuli\\STATE\\USED\\Sapplesgreenbasket1.jpg"",""stimuli\\STATE\\USED\\Sapplesgreenbasket2.jpg""]",stimuli\STATE\USED\Sapplesgreenbasket2.jpg,stimuli\STATE\USED\Sapplesgreenbasket1.jpg,I think items you saw repeated you would probably say you have a better recollection for.,"Certain positions, certain facets pop out (i.e. a color, pointed lines or shapes).",No.
camel,p3zegmnxubt,0.00666666666666671,0.9,425,39,629977,Test,exemplar,0,1922,1,true,1,"[""stimuli\\EXEMPLAR\\USED\\Ebicycle1.jpg"",""stimuli\\EXEMPLAR\\USED\\Ebicycle2.jpg""]",stimuli\EXEMPLAR\USED\Ebicycle1.jpg,stimuli\EXEMPLAR\USED\Ebicycle1.jpg,I think items you saw repeated you would probably say you have a better recollection for.,"Certain positions, certain facets pop out (i.e. a color, pointed lines or shapes).",No.
camel,p3zegmnxubt,0.00666666666666671,0.9,427,40,632347,Test,state,0,879,5,true,1,"[""stimuli\\STATE\\USED\\Sbreadslice2.jpg"",""stimuli\\STATE\\USED\\Sbreadslice1.jpg""]",stimuli\STATE\USED\Sbreadslice2.jpg,stimuli\STATE\USED\Sbreadslice2.jpg,I think items you saw repeated you would probably say you have a better recollection for.,"Certain positions, certain facets pop out (i.e. a color, pointed lines or shapes).",No.
camel,p3zegmnxubt,0.00666666666666671,0.9,429,41,634752,Test,exemplar,1,862,5,true,1,"[""stimuli\\EXEMPLAR\\USED\\Epotatochips2.jpg"",""stimuli\\EXEMPLAR\\USED\\Epotatochips1.jpg""]",stimuli\EXEMPLAR\USED\Epotatochips1.jpg,stimuli\EXEMPLAR\USED\Epotatochips1.jpg,I think items you saw repeated you would probably say you have a better recollection for.,"Certain positions, certain facets pop out (i.e. a color, pointed lines or shapes).",No.
camel,p3zegmnxubt,0.00666666666666671,0.9,431,42,638140,Test,state,1,1659,4,true,1,"[""stimuli\\STATE\\USED\\Sbox2.jpg"",""stimuli\\STATE\\USED\\Sbox1.jpg""]",stimuli\STATE\USED\Sbox1.jpg,stimuli\STATE\USED\Sbox1.jpg,I think items you saw repeated you would probably say you have a better recollection for.,"Certain positions, certain facets pop out (i.e. a color, pointed lines or shapes).",No.
camel,p3zegmnxubt,0.00666666666666671,0.9,433,43,642182,Test,state,0,2517,2,true,1,"[""stimuli\\STATE\\USED\\Shandmirror2.jpg"",""stimuli\\STATE\\USED\\Shandmirror1.jpg""]",stimuli\STATE\USED\Shandmirror2.jpg,stimuli\STATE\USED\Shandmirror2.jpg,I think items you saw repeated you would probably say you have a better recollection for.,"Certain positions, certain facets pop out (i.e. a color, pointed lines or shapes).",No.
camel,p3zegmnxubt,0.00666666666666671,0.9,435,44,644390,Test,exemplar,0,747,5,true,1,"[""stimuli\\EXEMPLAR\\USED\\Eelectricbass2.jpg"",""stimuli\\EXEMPLAR\\USED\\Eelectricbass1.jpg""]",stimuli\EXEMPLAR\USED\Eelectricbass2.jpg,stimuli\EXEMPLAR\USED\Eelectricbass2.jpg,I think items you saw repeated you would probably say you have a better recollection for.,"Certain positions, certain facets pop out (i.e. a color, pointed lines or shapes).",No.
camel,p3zegmnxubt,0.00666666666666671,0.9,437,45,647885,Test,exemplar,0,1945,5,true,1,"[""stimuli\\EXEMPLAR\\USED\\Esuitcase1.jpg"",""stimuli\\EXEMPLAR\\USED\\Esuitcase2.jpg""]",stimuli\EXEMPLAR\USED\Esuitcase1.jpg,stimuli\EXEMPLAR\USED\Esuitcase1.jpg,I think items you saw repeated you would probably say you have a better recollection for.,"Certain positions, certain facets pop out (i.e. a color, pointed lines or shapes).",No.
camel,p3zegmnxubt,0.00666666666666671,0.9,439,46,650257,Test,exemplar,0,822,5,true,1,"[""stimuli\\EXEMPLAR\\USED\\Eplate2.jpg"",""stimuli\\EXEMPLAR\\USED\\Eplate1.jpg""]",stimuli\EXEMPLAR\USED\Eplate2.jpg,stimuli\EXEMPLAR\USED\Eplate2.jpg,I think items you saw repeated you would probably say you have a better recollection for.,"Certain positions, certain facets pop out (i.e. a color, pointed lines or shapes).",No.
camel,p3zegmnxubt,0.00666666666666671,0.9,441,47,652488,Test,exemplar,0,724,5,true,1,"[""stimuli\\EXEMPLAR\\USED\\Etrain2.jpg"",""stimuli\\EXEMPLAR\\USED\\Etrain1.jpg""]",stimuli\EXEMPLAR\USED\Etrain2.jpg,stimuli\EXEMPLAR\USED\Etrain2.jpg,I think items you saw repeated you would probably say you have a better recollection for.,"Certain positions, certain facets pop out (i.e. a color, pointed lines or shapes).",No.
camel,p3zegmnxubt,0.00666666666666671,0.9,443,48,655095,Test,state,0,1065,5,true,1,"[""stimuli\\STATE\\USED\\Sclipboard1.jpg"",""stimuli\\STATE\\USED\\Sclipboard2.jpg""]",stimuli\STATE\USED\Sclipboard1.jpg,stimuli\STATE\USED\Sclipboard1.jpg,I think items you saw repeated you would probably say you have a better recollection for.,"Certain positions, certain facets pop out (i.e. a color, pointed lines or shapes).",No.
camel,p3zegmnxubt,0.00666666666666671,0.9,445,49,667154,Test,state,0,10630,2,false,0,"[""stimuli\\STATE\\USED\\Snapkins2.jpg"",""stimuli\\STATE\\USED\\Snapkins1.jpg""]",stimuli\STATE\USED\Snapkins1.jpg,stimuli\STATE\USED\Snapkins2.jpg,I think items you saw repeated you would probably say you have a better recollection for.,"Certain positions, certain facets pop out (i.e. a color, pointed lines or shapes).",No.
camel,p3zegmnxubt,0.00666666666666671,0.9,447,50,669810,Test,state,0,1139,4,true,1,"[""stimuli\\STATE\\USED\\Sbureau2.JPG"",""stimuli\\STATE\\USED\\Sbureau1.JPG""]",stimuli\STATE\USED\Sbureau2.JPG,stimuli\STATE\USED\Sbureau2.JPG,I think items you saw repeated you would probably say you have a better recollection for.,"Certain positions, certain facets pop out (i.e. a color, pointed lines or shapes).",No.
panda,p48hzab1ry2,0,0,349,1,505881,Test,exemplar,0,1369,4,true,1,"[""stimuli\\EXEMPLAR\\USED\\Eheadphones2.jpg"",""stimuli\\EXEMPLAR\\USED\\Eheadphones1.jpg""]",stimuli\EXEMPLAR\USED\Eheadphones2.jpg,stimuli\EXEMPLAR\USED\Eheadphones2.jpg,Memory test,Food and animals in particular and colors,no
panda,p48hzab1ry2,0,0,351,2,513731,Test,state,0,2666,2,true,1,"[""stimuli\\STATE\\USED\\Sdoughhands1.jpg"",""stimuli\\STATE\\USED\\Sdoughhands2.jpg""]",stimuli\STATE\USED\Sdoughhands1.jpg,stimuli\STATE\USED\Sdoughhands1.jpg,Memory test,Food and animals in particular and colors,no
panda,p48hzab1ry2,0,0,353,3,518899,Test,exemplar,1,2867,4,true,1,"[""stimuli\\EXEMPLAR\\USED\\Etongs2.jpg"",""stimuli\\EXEMPLAR\\USED\\Etongs1.jpg""]",stimuli\EXEMPLAR\USED\Etongs1.jpg,stimuli\EXEMPLAR\USED\Etongs1.jpg,Memory test,Food and animals in particular and colors,no
panda,p48hzab1ry2,0,0,355,4,523115,Test,state,0,1651,4,true,1,"[""stimuli\\STATE\\USED\\Seggplant1.jpg"",""stimuli\\STATE\\USED\\Seggplant2.jpg""]",stimuli\STATE\USED\Seggplant1.jpg,stimuli\STATE\USED\Seggplant1.jpg,Memory test,Food and animals in particular and colors,no
panda,p48hzab1ry2,0,0,357,5,528250,Test,state,0,2651,2,true,1,"[""stimuli\\STATE\\USED\\Smetronome2.JPG"",""stimuli\\STATE\\USED\\Smetronome1.jpg""]",stimuli\STATE\USED\Smetronome2.JPG,stimuli\STATE\USED\Smetronome2.JPG,Memory test,Food and animals in particular and colors,no
panda,p48hzab1ry2,0,0,359,6,532481,Test,state,0,1684,3,true,1,"[""stimuli\\STATE\\USED\\Scateringtray2.jpg"",""stimuli\\STATE\\USED\\Scateringtray1.jpg""]",stimuli\STATE\USED\Scateringtray2.jpg,stimuli\STATE\USED\Scateringtray2.jpg,Memory test,Food and animals in particular and colors,no
panda,p48hzab1ry2,0,0,361,7,537251,Test,exemplar,1,1201,5,true,1,"[""stimuli\\EXEMPLAR\\USED\\Emuffin2.jpg"",""stimuli\\EXEMPLAR\\USED\\Emuffin1.jpg""]",stimuli\EXEMPLAR\USED\Emuffin1.jpg,stimuli\EXEMPLAR\USED\Emuffin1.jpg,Memory test,Food and animals in particular and colors,no
panda,p48hzab1ry2,0,0,363,8,540647,Test,exemplar,1,1232,4,true,1,"[""stimuli\\EXEMPLAR\\USED\\Eholepunch2.jpg"",""stimuli\\EXEMPLAR\\USED\\Eholepunch1.jpg""]",stimuli\EXEMPLAR\USED\Eholepunch1.jpg,stimuli\EXEMPLAR\USED\Eholepunch1.jpg,Memory test,Food and animals in particular and colors,no
panda,p48hzab1ry2,0,0,365,9,543509,Test,exemplar,0,1494,3,true,1,"[""stimuli\\EXEMPLAR\\USED\\Elog1.jpg"",""stimuli\\EXEMPLAR\\USED\\Elog2.jpg""]",stimuli\EXEMPLAR\USED\Elog1.jpg,stimuli\EXEMPLAR\USED\Elog1.jpg,Memory test,Food and animals in particular and colors,no
panda,p48hzab1ry2,0,0,367,10,551946,Test,state,0,5166,4,true,1,"[""stimuli\\STATE\\USED\\Sdie1.jpg"",""stimuli\\STATE\\USED\\Sdie2.jpg""]",stimuli\STATE\USED\Sdie1.jpg,stimuli\STATE\USED\Sdie1.jpg,Memory test,Food and animals in particular and colors,no
panda,p48hzab1ry2,0,0,369,11,556693,Test,state,1,1678,3,true,1,"[""stimuli\\STATE\\USED\\Sgiftbag1.jpg"",""stimuli\\STATE\\USED\\Sgiftbag2.jpg""]",stimuli\STATE\USED\Sgiftbag2.jpg,stimuli\STATE\USED\Sgiftbag2.jpg,Memory test,Food and animals in particular and colors,no
panda,p48hzab1ry2,0,0,371,12,575471,Test,exemplar,1,14127,3,false,0,"[""stimuli\\EXEMPLAR\\USED\\Etrain2.jpg"",""stimuli\\EXEMPLAR\\USED\\Etrain1.jpg""]",stimuli\EXEMPLAR\USED\Etrain2.jpg,stimuli\EXEMPLAR\USED\Etrain1.jpg,Memory test,Food and animals in particular and colors,no
panda,p48hzab1ry2,0,0,373,13,578909,Test,exemplar,0,1139,4,false,0,"[""stimuli\\EXEMPLAR\\USED\\Ebrick1.jpg"",""stimuli\\EXEMPLAR\\USED\\Ebrick2.jpg""]",stimuli\EXEMPLAR\USED\Ebrick2.jpg,stimuli\EXEMPLAR\USED\Ebrick1.jpg,Memory test,Food and animals in particular and colors,no
panda,p48hzab1ry2,0,0,375,14,581960,Test,exemplar,1,1145,4,true,1,"[""stimuli\\EXEMPLAR\\USED\\Eicecream1.jpg"",""stimuli\\EXEMPLAR\\USED\\Eicecream2.jpg""]",stimuli\EXEMPLAR\USED\Eicecream2.jpg,stimuli\EXEMPLAR\USED\Eicecream2.jpg,Memory test,Food and animals in particular and colors,no
panda,p48hzab1ry2,0,0,377,15,585179,Test,state,1,1664,4,false,0,"[""stimuli\\STATE\\USED\\Stypewriter2.jpg"",""stimuli\\STATE\\USED\\Stypewriter1.jpg""]",stimuli\STATE\USED\Stypewriter2.jpg,stimuli\STATE\USED\Stypewriter1.jpg,Memory test,Food and animals in particular and colors,no
panda,p48hzab1ry2,0,0,379,16,589049,Test,state,1,1767,4,false,0,"[""stimuli\\STATE\\USED\\Sphone2.JPG"",""stimuli\\STATE\\USED\\Sphone1.JPG""]",stimuli\STATE\USED\Sphone2.JPG,stimuli\STATE\USED\Sphone1.JPG,Memory test,Food and animals in particular and colors,no
panda,p48hzab1ry2,0,0,381,17,592083,Test,exemplar,1,1600,4,true,1,"[""stimuli\\EXEMPLAR\\USED\\Etoyhand2.jpg"",""stimuli\\EXEMPLAR\\USED\\Etoyhand1.jpg""]",stimuli\EXEMPLAR\USED\Etoyhand1.jpg,stimuli\EXEMPLAR\USED\Etoyhand1.jpg,Memory test,Food and animals in particular and colors,no
panda,p48hzab1ry2,0,0,383,18,596788,Test,state,1,1956,4,false,0,"[""stimuli\\STATE\\USED\\Spadlock2.jpg"",""stimuli\\STATE\\USED\\Spadlock1.jpg""]",stimuli\STATE\USED\Spadlock2.jpg,stimuli\STATE\USED\Spadlock1.jpg,Memory test,Food and animals in particular and colors,no
panda,p48hzab1ry2,0,0,385,19,617607,Test,state,1,19244,3,true,1,"[""stimuli\\STATE\\USED\\Sapplesredbasket1.JPG"",""stimuli\\STATE\\USED\\Sapplesredbasket2.JPG""]",stimuli\STATE\USED\Sapplesredbasket2.JPG,stimuli\STATE\USED\Sapplesredbasket2.JPG,Memory test,Food and animals in particular and colors,no
panda,p48hzab1ry2,0,0,387,20,624765,Test,state,1,5200,4,false,0,"[""stimuli\\STATE\\USED\\Sbox2.jpg"",""stimuli\\STATE\\USED\\Sbox1.jpg""]",stimuli\STATE\USED\Sbox2.jpg,stimuli\STATE\USED\Sbox1.jpg,Memory test,Food and animals in particular and colors,no
panda,p48hzab1ry2,0,0,389,21,634003,Test,state,0,1925,4,false,0,"[""stimuli\\STATE\\USED\\Sboxwhite1.jpg"",""stimuli\\STATE\\USED\\Sboxwhite2.jpg""]",stimuli\STATE\USED\Sboxwhite2.jpg,stimuli\STATE\USED\Sboxwhite1.jpg,Memory test,Food and animals in particular and colors,no
panda,p48hzab1ry2,0,0,391,22,639975,Test,state,1,2642,4,false,0,"[""stimuli\\STATE\\USED\\Scontainer1.JPG"",""stimuli\\STATE\\USED\\Scontainer2.JPG""]",stimuli\STATE\USED\Scontainer1.JPG,stimuli\STATE\USED\Scontainer2.JPG,Memory test,Food and animals in particular and colors,no
panda,p48hzab1ry2,0,0,393,23,643438,Test,exemplar,0,1454,4,false,0,"[""stimuli\\EXEMPLAR\\USED\\Echocolatebar1.jpg"",""stimuli\\EXEMPLAR\\USED\\Echocolatebar2.jpg""]",stimuli\EXEMPLAR\USED\Echocolatebar2.jpg,stimuli\EXEMPLAR\USED\Echocolatebar1.jpg,Memory test,Food and animals in particular and colors,no
panda,p48hzab1ry2,0,0,395,24,648780,Test,state,0,3766,4,true,1,"[""stimuli\\STATE\\USED\\Shairbrush2.jpg"",""stimuli\\STATE\\USED\\Shairbrush1.jpg""]",stimuli\STATE\USED\Shairbrush2.jpg,stimuli\STATE\USED\Shairbrush2.jpg,Memory test,Food and animals in particular and colors,no
panda,p48hzab1ry2,0,0,397,25,651849,Test,state,0,1419,4,true,1,"[""stimuli\\STATE\\USED\\Sbrie2.JPG"",""stimuli\\STATE\\USED\\Sbrie1.JPG""]",stimuli\STATE\USED\Sbrie2.JPG,stimuli\STATE\USED\Sbrie2.JPG,Memory test,Food and animals in particular and colors,no
panda,p48hzab1ry2,0,0,399,26,655004,Test,state,1,1379,4,false,0,"[""stimuli\\STATE\\USED\\Sbabytoy2.JPG"",""stimuli\\STATE\\USED\\Sbabytoy1.JPG""]",stimuli\STATE\USED\Sbabytoy2.JPG,stimuli\STATE\USED\Sbabytoy1.JPG,Memory test,Food and animals in particular and colors,no
panda,p48hzab1ry2,0,0,401,27,659594,Test,state,1,2245,4,false,0,"[""stimuli\\STATE\\USED\\Sbooks2.JPG"",""stimuli\\STATE\\USED\\Sbooks1.JPG""]",stimuli\STATE\USED\Sbooks2.JPG,stimuli\STATE\USED\Sbooks1.JPG,Memory test,Food and animals in particular and colors,no
panda,p48hzab1ry2,0,0,403,28,665575,Test,exemplar,1,3654,4,false,0,"[""stimuli\\EXEMPLAR\\USED\\Etractor2.jpg"",""stimuli\\EXEMPLAR\\USED\\Etractor1.jpg""]",stimuli\EXEMPLAR\USED\Etractor2.jpg,stimuli\EXEMPLAR\USED\Etractor1.jpg,Memory test,Food and animals in particular and colors,no
panda,p48hzab1ry2,0,0,405,29,669565,Test,state,1,1983,4,true,1,"[""stimuli\\STATE\\USED\\Speppers2.jpg"",""stimuli\\STATE\\USED\\Speppers1.jpg""]",stimuli\STATE\USED\Speppers1.jpg,stimuli\STATE\USED\Speppers1.jpg,Memory test,Food and animals in particular and colors,no
panda,p48hzab1ry2,0,0,407,30,671909,Test,exemplar,1,1078,4,true,1,"[""stimuli\\EXEMPLAR\\USED\\Epotatochips1.jpg"",""stimuli\\EXEMPLAR\\USED\\Epotatochips2.jpg""]",stimuli\EXEMPLAR\USED\Epotatochips2.jpg,stimuli\EXEMPLAR\USED\Epotatochips2.jpg,Memory test,Food and animals in particular and colors,no
panda,p48hzab1ry2,0,0,409,31,674611,Test,state,0,1035,4,true,1,"[""stimuli\\STATE\\USED\\Sgiftbox1.jpg"",""stimuli\\STATE\\USED\\Sgiftbox2.jpg""]",stimuli\STATE\USED\Sgiftbox1.jpg,stimuli\STATE\USED\Sgiftbox1.jpg,Memory test,Food and animals in particular and colors,no
panda,p48hzab1ry2,0,0,411,32,677215,Test,exemplar,1,849,4,false,0,"[""stimuli\\EXEMPLAR\\USED\\Ebunny1.jpg"",""stimuli\\EXEMPLAR\\USED\\Ebunny2.jpg""]",stimuli\EXEMPLAR\USED\Ebunny1.jpg,stimuli\EXEMPLAR\USED\Ebunny2.jpg,Memory test,Food and animals in particular and colors,no
panda,p48hzab1ry2,0,0,413,33,680283,Test,state,1,1321,4,true,1,"[""stimuli\\STATE\\USED\\Sdonut1.jpg"",""stimuli\\STATE\\USED\\Sdonut2.jpg""]",stimuli\STATE\USED\Sdonut2.jpg,stimuli\STATE\USED\Sdonut2.jpg,Memory test,Food and animals in particular and colors,no
panda,p48hzab1ry2,0,0,415,34,684102,Test,state,1,2386,4,false,0,"[""stimuli\\STATE\\USED\\Ssweater2.jpg"",""stimuli\\STATE\\USED\\Ssweater1.jpg""]",stimuli\STATE\USED\Ssweater2.jpg,stimuli\STATE\USED\Ssweater1.jpg,Memory test,Food and animals in particular and colors,no
panda,p48hzab1ry2,0,0,417,35,692103,Test,exemplar,0,6440,3,false,0,"[""stimuli\\EXEMPLAR\\USED\\Eteapot1.JPG"",""stimuli\\EXEMPLAR\\USED\\Eteapot2.JPG""]",stimuli\EXEMPLAR\USED\Eteapot2.JPG,stimuli\EXEMPLAR\USED\Eteapot1.JPG,Memory test,Food and animals in particular and colors,no
panda,p48hzab1ry2,0,0,419,36,696831,Test,exemplar,1,1490,3,false,0,"[""stimuli\\EXEMPLAR\\USED\\Etoyplane2.jpg"",""stimuli\\EXEMPLAR\\USED\\Etoyplane1.jpg""]",stimuli\EXEMPLAR\USED\Etoyplane2.jpg,stimuli\EXEMPLAR\USED\Etoyplane1.jpg,Memory test,Food and animals in particular and colors,no
panda,p48hzab1ry2,0,0,421,37,701037,Test,exemplar,1,2051,3,false,0,"[""stimuli\\EXEMPLAR\\USED\\Eelectricbass1.jpg"",""stimuli\\EXEMPLAR\\USED\\Eelectricbass2.jpg""]",stimuli\EXEMPLAR\USED\Eelectricbass1.jpg,stimuli\EXEMPLAR\USED\Eelectricbass2.jpg,Memory test,Food and animals in particular and colors,no
panda,p48hzab1ry2,0,0,423,38,707309,Test,state,0,3245,3,false,0,"[""stimuli\\STATE\\USED\\Swaffleiron1.jpg"",""stimuli\\STATE\\USED\\Swaffleiron2.jpg""]",stimuli\STATE\USED\Swaffleiron2.jpg,stimuli\STATE\USED\Swaffleiron1.jpg,Memory test,Food and animals in particular and colors,no
panda,p48hzab1ry2,0,0,425,39,711396,Test,exemplar,1,2480,4,true,1,"[""stimuli\\EXEMPLAR\\USED\\Ecake2.jpg"",""stimuli\\EXEMPLAR\\USED\\Ecake1.jpg""]",stimuli\EXEMPLAR\USED\Ecake1.jpg,stimuli\EXEMPLAR\USED\Ecake1.jpg,Memory test,Food and animals in particular and colors,no
panda,p48hzab1ry2,0,0,427,40,714405,Test,exemplar,1,1491,4,false,0,"[""stimuli\\EXEMPLAR\\USED\\Esantahat1.jpg"",""stimuli\\EXEMPLAR\\USED\\Esantahat2.jpg""]",stimuli\EXEMPLAR\USED\Esantahat1.jpg,stimuli\EXEMPLAR\USED\Esantahat2.jpg,Memory test,Food and animals in particular and colors,no
panda,p48hzab1ry2,0,0,429,41,716582,Test,exemplar,1,900,4,false,0,"[""stimuli\\EXEMPLAR\\USED\\Ebread1.jpg"",""stimuli\\EXEMPLAR\\USED\\Ebread2.jpg""]",stimuli\EXEMPLAR\USED\Ebread1.jpg,stimuli\EXEMPLAR\USED\Ebread2.jpg,Memory test,Food and animals in particular and colors,no
panda,p48hzab1ry2,0,0,431,42,719791,Test,state,0,1785,3,true,1,"[""stimuli\\STATE\\USED\\Sbrushes1.jpg"",""stimuli\\STATE\\USED\\Sbrushes2.jpg""]",stimuli\STATE\USED\Sbrushes1.jpg,stimuli\STATE\USED\Sbrushes1.jpg,Memory test,Food and animals in particular and colors,no
panda,p48hzab1ry2,0,0,433,43,723829,Test,state,1,1309,3,false,0,"[""stimuli\\STATE\\USED\\Schinesefoodbox1.jpg"",""stimuli\\STATE\\USED\\Schinesefoodbox2.jpg""]",stimuli\STATE\USED\Schinesefoodbox1.jpg,stimuli\STATE\USED\Schinesefoodbox2.jpg,Memory test,Food and animals in particular and colors,no
panda,p48hzab1ry2,0,0,435,44,726797,Test,exemplar,1,1198,3,true,1,"[""stimuli\\EXEMPLAR\\USED\\Esuitcase2.jpg"",""stimuli\\EXEMPLAR\\USED\\Esuitcase1.jpg""]",stimuli\EXEMPLAR\USED\Esuitcase1.jpg,stimuli\EXEMPLAR\USED\Esuitcase1.jpg,Memory test,Food and animals in particular and colors,no
panda,p48hzab1ry2,0,0,437,45,730394,Test,exemplar,0,1994,4,false,0,"[""stimuli\\EXEMPLAR\\USED\\Eguitar2.jpg"",""stimuli\\EXEMPLAR\\USED\\Eguitar1.jpg""]",stimuli\EXEMPLAR\USED\Eguitar1.jpg,stimuli\EXEMPLAR\USED\Eguitar2.jpg,Memory test,Food and animals in particular and colors,no
panda,p48hzab1ry2,0,0,439,46,733454,Test,exemplar,1,958,4,false,0,"[""stimuli\\EXEMPLAR\\USED\\Epliers2.jpg"",""stimuli\\EXEMPLAR\\USED\\Epliers1.jpg""]",stimuli\EXEMPLAR\USED\Epliers2.jpg,stimuli\EXEMPLAR\USED\Epliers1.jpg,Memory test,Food and animals in particular and colors,no
panda,p48hzab1ry2,0,0,441,47,740487,Test,exemplar,1,5501,3,true,1,"[""stimuli\\EXEMPLAR\\USED\\Etoywrench2.jpg"",""stimuli\\EXEMPLAR\\USED\\Etoywrench1.jpg""]",stimuli\EXEMPLAR\USED\Etoywrench1.jpg,stimuli\EXEMPLAR\USED\Etoywrench1.jpg,Memory test,Food and animals in particular and colors,no
panda,p48hzab1ry2,0,0,443,48,753793,Test,exemplar,1,9569,3,false,0,"[""stimuli\\EXEMPLAR\\USED\\Erabbit2.jpg"",""stimuli\\EXEMPLAR\\USED\\Erabbit1.jpg""]",stimuli\EXEMPLAR\USED\Erabbit2.jpg,stimuli\EXEMPLAR\USED\Erabbit1.jpg,Memory test,Food and animals in particular and colors,no
panda,p48hzab1ry2,0,0,445,49,758161,Test,exemplar,1,2251,3,true,1,"[""stimuli\\EXEMPLAR\\USED\\Ebonzai2.jpg"",""stimuli\\EXEMPLAR\\USED\\Ebonzai1.jpg""]",stimuli\EXEMPLAR\USED\Ebonzai1.jpg,stimuli\EXEMPLAR\USED\Ebonzai1.jpg,Memory test,Food and animals in particular and colors,no
panda,p48hzab1ry2,0,0,447,50,762733,Test,state,1,2324,4,true,1,"[""stimuli\\STATE\\USED\\Stiger2.jpg"",""stimuli\\STATE\\USED\\Stiger1.jpg""]",stimuli\STATE\USED\Stiger1.jpg,stimuli\STATE\USED\Stiger1.jpg,Memory test,Food and animals in particular and colors,no
moose,p5lyc28scvl,0.013333333333333308,0.95,349,1,473089,Test,exemplar,1,3613,1,true,1,"[""stimuli\\EXEMPLAR\\USED\\Ehotairballoon2.jpg"",""stimuli\\EXEMPLAR\\USED\\Ehotairballoon1.jpg""]",stimuli\EXEMPLAR\USED\Ehotairballoon1.jpg,stimuli\EXEMPLAR\USED\Ehotairballoon1.jpg,"I think this experiment was about how well people are able to remember slight differences in images, and/or if certain images are inherently easier to remember or distinguish.",A lot of the images that I was asked to distinguish were already images that stood out to me more and had an easier time to memorize.,"Not technically an issue but I had taken the version of this experiment before it was fixed and I still had remembered some of these images from the first time I took it, which likely affected my data (i.e selecting an image I saw from the first time when I'd actually seen a different image this second time)"
moose,p5lyc28scvl,0.013333333333333308,0.95,351,2,478631,Test,state,0,2248,5,true,1,"[""stimuli\\STATE\\USED\\Sdishes1.JPG"",""stimuli\\STATE\\USED\\Sdishes2.JPG""]",stimuli\STATE\USED\Sdishes1.JPG,stimuli\STATE\USED\Sdishes1.JPG,"I think this experiment was about how well people are able to remember slight differences in images, and/or if certain images are inherently easier to remember or distinguish.",A lot of the images that I was asked to distinguish were already images that stood out to me more and had an easier time to memorize.,"Not technically an issue but I had taken the version of this experiment before it was fixed and I still had remembered some of these images from the first time I took it, which likely affected my data (i.e selecting an image I saw from the first time when I'd actually seen a different image this second time)"
moose,p5lyc28scvl,0.013333333333333308,0.95,353,3,483161,Test,state,1,2915,4,true,1,"[""stimuli\\STATE\\USED\\Sdoughhands1.jpg"",""stimuli\\STATE\\USED\\Sdoughhands2.jpg""]",stimuli\STATE\USED\Sdoughhands2.jpg,stimuli\STATE\USED\Sdoughhands2.jpg,"I think this experiment was about how well people are able to remember slight differences in images, and/or if certain images are inherently easier to remember or distinguish.",A lot of the images that I was asked to distinguish were already images that stood out to me more and had an easier time to memorize.,"Not technically an issue but I had taken the version of this experiment before it was fixed and I still had remembered some of these images from the first time I took it, which likely affected my data (i.e selecting an image I saw from the first time when I'd actually seen a different image this second time)"
moose,p5lyc28scvl,0.013333333333333308,0.95,355,4,486708,Test,state,1,1867,3,true,1,"[""stimuli\\STATE\\USED\\Spestle1.jpg"",""stimuli\\STATE\\USED\\Spestle2.jpg""]",stimuli\STATE\USED\Spestle2.jpg,stimuli\STATE\USED\Spestle2.jpg,"I think this experiment was about how well people are able to remember slight differences in images, and/or if certain images are inherently easier to remember or distinguish.",A lot of the images that I was asked to distinguish were already images that stood out to me more and had an easier time to memorize.,"Not technically an issue but I had taken the version of this experiment before it was fixed and I still had remembered some of these images from the first time I took it, which likely affected my data (i.e selecting an image I saw from the first time when I'd actually seen a different image this second time)"
moose,p5lyc28scvl,0.013333333333333308,0.95,357,5,490766,Test,state,1,1903,1,true,1,"[""stimuli\\STATE\\USED\\Swaffleiron1.jpg"",""stimuli\\STATE\\USED\\Swaffleiron2.jpg""]",stimuli\STATE\USED\Swaffleiron2.jpg,stimuli\STATE\USED\Swaffleiron2.jpg,"I think this experiment was about how well people are able to remember slight differences in images, and/or if certain images are inherently easier to remember or distinguish.",A lot of the images that I was asked to distinguish were already images that stood out to me more and had an easier time to memorize.,"Not technically an issue but I had taken the version of this experiment before it was fixed and I still had remembered some of these images from the first time I took it, which likely affected my data (i.e selecting an image I saw from the first time when I'd actually seen a different image this second time)"
moose,p5lyc28scvl,0.013333333333333308,0.95,359,6,494598,Test,exemplar,0,1333,5,true,1,"[""stimuli\\EXEMPLAR\\USED\\Emuffin1.jpg"",""stimuli\\EXEMPLAR\\USED\\Emuffin2.jpg""]",stimuli\EXEMPLAR\USED\Emuffin1.jpg,stimuli\EXEMPLAR\USED\Emuffin1.jpg,"I think this experiment was about how well people are able to remember slight differences in images, and/or if certain images are inherently easier to remember or distinguish.",A lot of the images that I was asked to distinguish were already images that stood out to me more and had an easier time to memorize.,"Not technically an issue but I had taken the version of this experiment before it was fixed and I still had remembered some of these images from the first time I took it, which likely affected my data (i.e selecting an image I saw from the first time when I'd actually seen a different image this second time)"
moose,p5lyc28scvl,0.013333333333333308,0.95,361,7,499285,Test,exemplar,0,2578,2,true,1,"[""stimuli\\EXEMPLAR\\USED\\Erazor1.jpg"",""stimuli\\EXEMPLAR\\USED\\Erazor2.jpg""]",stimuli\EXEMPLAR\USED\Erazor1.jpg,stimuli\EXEMPLAR\USED\Erazor1.jpg,"I think this experiment was about how well people are able to remember slight differences in images, and/or if certain images are inherently easier to remember or distinguish.",A lot of the images that I was asked to distinguish were already images that stood out to me more and had an easier time to memorize.,"Not technically an issue but I had taken the version of this experiment before it was fixed and I still had remembered some of these images from the first time I took it, which likely affected my data (i.e selecting an image I saw from the first time when I'd actually seen a different image this second time)"
moose,p5lyc28scvl,0.013333333333333308,0.95,363,8,505135,Test,state,1,3906,1,false,0,"[""stimuli\\STATE\\USED\\Scooker2.jpg"",""stimuli\\STATE\\USED\\Scooker1.jpg""]",stimuli\STATE\USED\Scooker2.jpg,stimuli\STATE\USED\Scooker1.jpg,"I think this experiment was about how well people are able to remember slight differences in images, and/or if certain images are inherently easier to remember or distinguish.",A lot of the images that I was asked to distinguish were already images that stood out to me more and had an easier time to memorize.,"Not technically an issue but I had taken the version of this experiment before it was fixed and I still had remembered some of these images from the first time I took it, which likely affected my data (i.e selecting an image I saw from the first time when I'd actually seen a different image this second time)"
moose,p5lyc28scvl,0.013333333333333308,0.95,365,9,508526,Test,state,0,1395,5,true,1,"[""stimuli\\STATE\\USED\\Sskull2.jpg"",""stimuli\\STATE\\USED\\Sskull1.jpg""]",stimuli\STATE\USED\Sskull2.jpg,stimuli\STATE\USED\Sskull2.jpg,"I think this experiment was about how well people are able to remember slight differences in images, and/or if certain images are inherently easier to remember or distinguish.",A lot of the images that I was asked to distinguish were already images that stood out to me more and had an easier time to memorize.,"Not technically an issue but I had taken the version of this experiment before it was fixed and I still had remembered some of these images from the first time I took it, which likely affected my data (i.e selecting an image I saw from the first time when I'd actually seen a different image this second time)"
moose,p5lyc28scvl,0.013333333333333308,0.95,367,10,512718,Test,exemplar,0,2368,3,true,1,"[""stimuli\\EXEMPLAR\\USED\\Esantahat1.jpg"",""stimuli\\EXEMPLAR\\USED\\Esantahat2.jpg""]",stimuli\EXEMPLAR\USED\Esantahat1.jpg,stimuli\EXEMPLAR\USED\Esantahat1.jpg,"I think this experiment was about how well people are able to remember slight differences in images, and/or if certain images are inherently easier to remember or distinguish.",A lot of the images that I was asked to distinguish were already images that stood out to me more and had an easier time to memorize.,"Not technically an issue but I had taken the version of this experiment before it was fixed and I still had remembered some of these images from the first time I took it, which likely affected my data (i.e selecting an image I saw from the first time when I'd actually seen a different image this second time)"
moose,p5lyc28scvl,0.013333333333333308,0.95,369,11,517219,Test,exemplar,1,3015,1,true,1,"[""stimuli\\EXEMPLAR\\USED\\Etractor2.jpg"",""stimuli\\EXEMPLAR\\USED\\Etractor1.jpg""]",stimuli\EXEMPLAR\USED\Etractor1.jpg,stimuli\EXEMPLAR\USED\Etractor1.jpg,"I think this experiment was about how well people are able to remember slight differences in images, and/or if certain images are inherently easier to remember or distinguish.",A lot of the images that I was asked to distinguish were already images that stood out to me more and had an easier time to memorize.,"Not technically an issue but I had taken the version of this experiment before it was fixed and I still had remembered some of these images from the first time I took it, which likely affected my data (i.e selecting an image I saw from the first time when I'd actually seen a different image this second time)"
moose,p5lyc28scvl,0.013333333333333308,0.95,371,12,521658,Test,state,1,2429,1,true,1,"[""stimuli\\STATE\\USED\\Sapplesredbasket1.JPG"",""stimuli\\STATE\\USED\\Sapplesredbasket2.JPG""]",stimuli\STATE\USED\Sapplesredbasket2.JPG,stimuli\STATE\USED\Sapplesredbasket2.JPG,"I think this experiment was about how well people are able to remember slight differences in images, and/or if certain images are inherently easier to remember or distinguish.",A lot of the images that I was asked to distinguish were already images that stood out to me more and had an easier time to memorize.,"Not technically an issue but I had taken the version of this experiment before it was fixed and I still had remembered some of these images from the first time I took it, which likely affected my data (i.e selecting an image I saw from the first time when I'd actually seen a different image this second time)"
moose,p5lyc28scvl,0.013333333333333308,0.95,373,13,524906,Test,exemplar,1,1424,5,true,1,"[""stimuli\\EXEMPLAR\\USED\\Etoyhand2.jpg"",""stimuli\\EXEMPLAR\\USED\\Etoyhand1.jpg""]",stimuli\EXEMPLAR\USED\Etoyhand1.jpg,stimuli\EXEMPLAR\USED\Etoyhand1.jpg,"I think this experiment was about how well people are able to remember slight differences in images, and/or if certain images are inherently easier to remember or distinguish.",A lot of the images that I was asked to distinguish were already images that stood out to me more and had an easier time to memorize.,"Not technically an issue but I had taken the version of this experiment before it was fixed and I still had remembered some of these images from the first time I took it, which likely affected my data (i.e selecting an image I saw from the first time when I'd actually seen a different image this second time)"
moose,p5lyc28scvl,0.013333333333333308,0.95,375,14,528258,Test,exemplar,0,1656,4,true,1,"[""stimuli\\EXEMPLAR\\USED\\Eguitar1.jpg"",""stimuli\\EXEMPLAR\\USED\\Eguitar2.jpg""]",stimuli\EXEMPLAR\USED\Eguitar1.jpg,stimuli\EXEMPLAR\USED\Eguitar1.jpg,"I think this experiment was about how well people are able to remember slight differences in images, and/or if certain images are inherently easier to remember or distinguish.",A lot of the images that I was asked to distinguish were already images that stood out to me more and had an easier time to memorize.,"Not technically an issue but I had taken the version of this experiment before it was fixed and I still had remembered some of these images from the first time I took it, which likely affected my data (i.e selecting an image I saw from the first time when I'd actually seen a different image this second time)"
moose,p5lyc28scvl,0.013333333333333308,0.95,377,15,531408,Test,exemplar,1,1259,4,true,1,"[""stimuli\\EXEMPLAR\\USED\\Ekayak1.jpg"",""stimuli\\EXEMPLAR\\USED\\Ekayak2.jpg""]",stimuli\EXEMPLAR\USED\Ekayak2.jpg,stimuli\EXEMPLAR\USED\Ekayak2.jpg,"I think this experiment was about how well people are able to remember slight differences in images, and/or if certain images are inherently easier to remember or distinguish.",A lot of the images that I was asked to distinguish were already images that stood out to me more and had an easier time to memorize.,"Not technically an issue but I had taken the version of this experiment before it was fixed and I still had remembered some of these images from the first time I took it, which likely affected my data (i.e selecting an image I saw from the first time when I'd actually seen a different image this second time)"
moose,p5lyc28scvl,0.013333333333333308,0.95,379,16,535863,Test,state,1,2106,1,true,1,"[""stimuli\\STATE\\USED\\Sdie2.jpg"",""stimuli\\STATE\\USED\\Sdie1.jpg""]",stimuli\STATE\USED\Sdie1.jpg,stimuli\STATE\USED\Sdie1.jpg,"I think this experiment was about how well people are able to remember slight differences in images, and/or if certain images are inherently easier to remember or distinguish.",A lot of the images that I was asked to distinguish were already images that stood out to me more and had an easier time to memorize.,"Not technically an issue but I had taken the version of this experiment before it was fixed and I still had remembered some of these images from the first time I took it, which likely affected my data (i.e selecting an image I saw from the first time when I'd actually seen a different image this second time)"
moose,p5lyc28scvl,0.013333333333333308,0.95,381,17,541391,Test,state,1,3374,4,true,1,"[""stimuli\\STATE\\USED\\Sdrum2.jpg"",""stimuli\\STATE\\USED\\Sdrum1.jpg""]",stimuli\STATE\USED\Sdrum1.jpg,stimuli\STATE\USED\Sdrum1.jpg,"I think this experiment was about how well people are able to remember slight differences in images, and/or if certain images are inherently easier to remember or distinguish.",A lot of the images that I was asked to distinguish were already images that stood out to me more and had an easier time to memorize.,"Not technically an issue but I had taken the version of this experiment before it was fixed and I still had remembered some of these images from the first time I took it, which likely affected my data (i.e selecting an image I saw from the first time when I'd actually seen a different image this second time)"
moose,p5lyc28scvl,0.013333333333333308,0.95,383,18,544489,Test,state,1,1769,1,true,1,"[""stimuli\\STATE\\USED\\Spadlock2.jpg"",""stimuli\\STATE\\USED\\Spadlock1.jpg""]",stimuli\STATE\USED\Spadlock1.jpg,stimuli\STATE\USED\Spadlock1.jpg,"I think this experiment was about how well people are able to remember slight differences in images, and/or if certain images are inherently easier to remember or distinguish.",A lot of the images that I was asked to distinguish were already images that stood out to me more and had an easier time to memorize.,"Not technically an issue but I had taken the version of this experiment before it was fixed and I still had remembered some of these images from the first time I took it, which likely affected my data (i.e selecting an image I saw from the first time when I'd actually seen a different image this second time)"
moose,p5lyc28scvl,0.013333333333333308,0.95,385,19,548126,Test,state,0,2324,1,false,0,"[""stimuli\\STATE\\USED\\Sbrushes2.jpg"",""stimuli\\STATE\\USED\\Sbrushes1.jpg""]",stimuli\STATE\USED\Sbrushes1.jpg,stimuli\STATE\USED\Sbrushes2.jpg,"I think this experiment was about how well people are able to remember slight differences in images, and/or if certain images are inherently easier to remember or distinguish.",A lot of the images that I was asked to distinguish were already images that stood out to me more and had an easier time to memorize.,"Not technically an issue but I had taken the version of this experiment before it was fixed and I still had remembered some of these images from the first time I took it, which likely affected my data (i.e selecting an image I saw from the first time when I'd actually seen a different image this second time)"
moose,p5lyc28scvl,0.013333333333333308,0.95,387,20,550901,Test,exemplar,0,1056,5,true,1,"[""stimuli\\EXEMPLAR\\USED\\Ecake2.jpg"",""stimuli\\EXEMPLAR\\USED\\Ecake1.jpg""]",stimuli\EXEMPLAR\USED\Ecake2.jpg,stimuli\EXEMPLAR\USED\Ecake2.jpg,"I think this experiment was about how well people are able to remember slight differences in images, and/or if certain images are inherently easier to remember or distinguish.",A lot of the images that I was asked to distinguish were already images that stood out to me more and had an easier time to memorize.,"Not technically an issue but I had taken the version of this experiment before it was fixed and I still had remembered some of these images from the first time I took it, which likely affected my data (i.e selecting an image I saw from the first time when I'd actually seen a different image this second time)"
moose,p5lyc28scvl,0.013333333333333308,0.95,389,21,553511,Test,state,1,1071,5,true,1,"[""stimuli\\STATE\\USED\\Sschoolbag2.JPG"",""stimuli\\STATE\\USED\\Sschoolbag1.JPG""]",stimuli\STATE\USED\Sschoolbag1.JPG,stimuli\STATE\USED\Sschoolbag1.JPG,"I think this experiment was about how well people are able to remember slight differences in images, and/or if certain images are inherently easier to remember or distinguish.",A lot of the images that I was asked to distinguish were already images that stood out to me more and had an easier time to memorize.,"Not technically an issue but I had taken the version of this experiment before it was fixed and I still had remembered some of these images from the first time I took it, which likely affected my data (i.e selecting an image I saw from the first time when I'd actually seen a different image this second time)"
moose,p5lyc28scvl,0.013333333333333308,0.95,391,22,556421,Test,exemplar,1,1034,5,true,1,"[""stimuli\\EXEMPLAR\\USED\\Erabbit2.jpg"",""stimuli\\EXEMPLAR\\USED\\Erabbit1.jpg""]",stimuli\EXEMPLAR\USED\Erabbit1.jpg,stimuli\EXEMPLAR\USED\Erabbit1.jpg,"I think this experiment was about how well people are able to remember slight differences in images, and/or if certain images are inherently easier to remember or distinguish.",A lot of the images that I was asked to distinguish were already images that stood out to me more and had an easier time to memorize.,"Not technically an issue but I had taken the version of this experiment before it was fixed and I still had remembered some of these images from the first time I took it, which likely affected my data (i.e selecting an image I saw from the first time when I'd actually seen a different image this second time)"
moose,p5lyc28scvl,0.013333333333333308,0.95,393,23,562931,Test,state,1,4701,1,true,1,"[""stimuli\\STATE\\USED\\Shairbrush1.jpg"",""stimuli\\STATE\\USED\\Shairbrush2.jpg""]",stimuli\STATE\USED\Shairbrush2.jpg,stimuli\STATE\USED\Shairbrush2.jpg,"I think this experiment was about how well people are able to remember slight differences in images, and/or if certain images are inherently easier to remember or distinguish.",A lot of the images that I was asked to distinguish were already images that stood out to me more and had an easier time to memorize.,"Not technically an issue but I had taken the version of this experiment before it was fixed and I still had remembered some of these images from the first time I took it, which likely affected my data (i.e selecting an image I saw from the first time when I'd actually seen a different image this second time)"
moose,p5lyc28scvl,0.013333333333333308,0.95,395,24,567048,Test,state,1,1543,4,true,1,"[""stimuli\\STATE\\USED\\Spatiotable2.jpg"",""stimuli\\STATE\\USED\\Spatiotable1.jpg""]",stimuli\STATE\USED\Spatiotable1.jpg,stimuli\STATE\USED\Spatiotable1.jpg,"I think this experiment was about how well people are able to remember slight differences in images, and/or if certain images are inherently easier to remember or distinguish.",A lot of the images that I was asked to distinguish were already images that stood out to me more and had an easier time to memorize.,"Not technically an issue but I had taken the version of this experiment before it was fixed and I still had remembered some of these images from the first time I took it, which likely affected my data (i.e selecting an image I saw from the first time when I'd actually seen a different image this second time)"
moose,p5lyc28scvl,0.013333333333333308,0.95,397,25,570746,Test,state,0,2271,4,true,1,"[""stimuli\\STATE\\USED\\Sscanner1.JPG"",""stimuli\\STATE\\USED\\Sscanner2.JPG""]",stimuli\STATE\USED\Sscanner1.JPG,stimuli\STATE\USED\Sscanner1.JPG,"I think this experiment was about how well people are able to remember slight differences in images, and/or if certain images are inherently easier to remember or distinguish.",A lot of the images that I was asked to distinguish were already images that stood out to me more and had an easier time to memorize.,"Not technically an issue but I had taken the version of this experiment before it was fixed and I still had remembered some of these images from the first time I took it, which likely affected my data (i.e selecting an image I saw from the first time when I'd actually seen a different image this second time)"
moose,p5lyc28scvl,0.013333333333333308,0.95,399,26,573453,Test,exemplar,0,1138,5,true,1,"[""stimuli\\EXEMPLAR\\USED\\Epiano1.jpg"",""stimuli\\EXEMPLAR\\USED\\Epiano2.jpg""]",stimuli\EXEMPLAR\USED\Epiano1.jpg,stimuli\EXEMPLAR\USED\Epiano1.jpg,"I think this experiment was about how well people are able to remember slight differences in images, and/or if certain images are inherently easier to remember or distinguish.",A lot of the images that I was asked to distinguish were already images that stood out to me more and had an easier time to memorize.,"Not technically an issue but I had taken the version of this experiment before it was fixed and I still had remembered some of these images from the first time I took it, which likely affected my data (i.e selecting an image I saw from the first time when I'd actually seen a different image this second time)"
moose,p5lyc28scvl,0.013333333333333308,0.95,401,27,578037,Test,state,0,2699,2,true,1,"[""stimuli\\STATE\\USED\\Spumpkinpie1.jpg"",""stimuli\\STATE\\USED\\Spumpkinpie2.jpg""]",stimuli\STATE\USED\Spumpkinpie1.jpg,stimuli\STATE\USED\Spumpkinpie1.jpg,"I think this experiment was about how well people are able to remember slight differences in images, and/or if certain images are inherently easier to remember or distinguish.",A lot of the images that I was asked to distinguish were already images that stood out to me more and had an easier time to memorize.,"Not technically an issue but I had taken the version of this experiment before it was fixed and I still had remembered some of these images from the first time I took it, which likely affected my data (i.e selecting an image I saw from the first time when I'd actually seen a different image this second time)"
moose,p5lyc28scvl,0.013333333333333308,0.95,403,28,580593,Test,exemplar,1,996,5,true,1,"[""stimuli\\EXEMPLAR\\USED\\Estapler1.jpg"",""stimuli\\EXEMPLAR\\USED\\Estapler2.jpg""]",stimuli\EXEMPLAR\USED\Estapler2.jpg,stimuli\EXEMPLAR\USED\Estapler2.jpg,"I think this experiment was about how well people are able to remember slight differences in images, and/or if certain images are inherently easier to remember or distinguish.",A lot of the images that I was asked to distinguish were already images that stood out to me more and had an easier time to memorize.,"Not technically an issue but I had taken the version of this experiment before it was fixed and I still had remembered some of these images from the first time I took it, which likely affected my data (i.e selecting an image I saw from the first time when I'd actually seen a different image this second time)"
moose,p5lyc28scvl,0.013333333333333308,0.95,405,29,583616,Test,state,0,1514,5,true,1,"[""stimuli\\STATE\\USED\\Sbreadslice2.jpg"",""stimuli\\STATE\\USED\\Sbreadslice1.jpg""]",stimuli\STATE\USED\Sbreadslice2.jpg,stimuli\STATE\USED\Sbreadslice2.jpg,"I think this experiment was about how well people are able to remember slight differences in images, and/or if certain images are inherently easier to remember or distinguish.",A lot of the images that I was asked to distinguish were already images that stood out to me more and had an easier time to memorize.,"Not technically an issue but I had taken the version of this experiment before it was fixed and I still had remembered some of these images from the first time I took it, which likely affected my data (i.e selecting an image I saw from the first time when I'd actually seen a different image this second time)"
moose,p5lyc28scvl,0.013333333333333308,0.95,407,30,587006,Test,exemplar,1,1664,5,true,1,"[""stimuli\\EXEMPLAR\\USED\\Ebunny1.jpg"",""stimuli\\EXEMPLAR\\USED\\Ebunny2.jpg""]",stimuli\EXEMPLAR\USED\Ebunny2.jpg,stimuli\EXEMPLAR\USED\Ebunny2.jpg,"I think this experiment was about how well people are able to remember slight differences in images, and/or if certain images are inherently easier to remember or distinguish.",A lot of the images that I was asked to distinguish were already images that stood out to me more and had an easier time to memorize.,"Not technically an issue but I had taken the version of this experiment before it was fixed and I still had remembered some of these images from the first time I took it, which likely affected my data (i.e selecting an image I saw from the first time when I'd actually seen a different image this second time)"
moose,p5lyc28scvl,0.013333333333333308,0.95,409,31,592564,Test,state,0,2668,3,true,1,"[""stimuli\\STATE\\USED\\Snapkins1.jpg"",""stimuli\\STATE\\USED\\Snapkins2.jpg""]",stimuli\STATE\USED\Snapkins1.jpg,stimuli\STATE\USED\Snapkins1.jpg,"I think this experiment was about how well people are able to remember slight differences in images, and/or if certain images are inherently easier to remember or distinguish.",A lot of the images that I was asked to distinguish were already images that stood out to me more and had an easier time to memorize.,"Not technically an issue but I had taken the version of this experiment before it was fixed and I still had remembered some of these images from the first time I took it, which likely affected my data (i.e selecting an image I saw from the first time when I'd actually seen a different image this second time)"
moose,p5lyc28scvl,0.013333333333333308,0.95,411,32,597093,Test,exemplar,0,2819,1,true,1,"[""stimuli\\EXEMPLAR\\USED\\Ebicycle1.jpg"",""stimuli\\EXEMPLAR\\USED\\Ebicycle2.jpg""]",stimuli\EXEMPLAR\USED\Ebicycle1.jpg,stimuli\EXEMPLAR\USED\Ebicycle1.jpg,"I think this experiment was about how well people are able to remember slight differences in images, and/or if certain images are inherently easier to remember or distinguish.",A lot of the images that I was asked to distinguish were already images that stood out to me more and had an easier time to memorize.,"Not technically an issue but I had taken the version of this experiment before it was fixed and I still had remembered some of these images from the first time I took it, which likely affected my data (i.e selecting an image I saw from the first time when I'd actually seen a different image this second time)"
moose,p5lyc28scvl,0.013333333333333308,0.95,413,33,600431,Test,state,0,1844,5,true,1,"[""stimuli\\STATE\\USED\\Siron2.jpg"",""stimuli\\STATE\\USED\\Siron1.jpg""]",stimuli\STATE\USED\Siron2.jpg,stimuli\STATE\USED\Siron2.jpg,"I think this experiment was about how well people are able to remember slight differences in images, and/or if certain images are inherently easier to remember or distinguish.",A lot of the images that I was asked to distinguish were already images that stood out to me more and had an easier time to memorize.,"Not technically an issue but I had taken the version of this experiment before it was fixed and I still had remembered some of these images from the first time I took it, which likely affected my data (i.e selecting an image I saw from the first time when I'd actually seen a different image this second time)"
moose,p5lyc28scvl,0.013333333333333308,0.95,415,34,603476,Test,exemplar,1,1454,5,true,1,"[""stimuli\\EXEMPLAR\\USED\\Eicecream2.jpg"",""stimuli\\EXEMPLAR\\USED\\Eicecream1.jpg""]",stimuli\EXEMPLAR\USED\Eicecream1.jpg,stimuli\EXEMPLAR\USED\Eicecream1.jpg,"I think this experiment was about how well people are able to remember slight differences in images, and/or if certain images are inherently easier to remember or distinguish.",A lot of the images that I was asked to distinguish were already images that stood out to me more and had an easier time to memorize.,"Not technically an issue but I had taken the version of this experiment before it was fixed and I still had remembered some of these images from the first time I took it, which likely affected my data (i.e selecting an image I saw from the first time when I'd actually seen a different image this second time)"
moose,p5lyc28scvl,0.013333333333333308,0.95,417,35,606521,Test,exemplar,0,1656,3,true,1,"[""stimuli\\EXEMPLAR\\USED\\Etrowel1.jpg"",""stimuli\\EXEMPLAR\\USED\\Etrowel2.jpg""]",stimuli\EXEMPLAR\USED\Etrowel1.jpg,stimuli\EXEMPLAR\USED\Etrowel1.jpg,"I think this experiment was about how well people are able to remember slight differences in images, and/or if certain images are inherently easier to remember or distinguish.",A lot of the images that I was asked to distinguish were already images that stood out to me more and had an easier time to memorize.,"Not technically an issue but I had taken the version of this experiment before it was fixed and I still had remembered some of these images from the first time I took it, which likely affected my data (i.e selecting an image I saw from the first time when I'd actually seen a different image this second time)"
moose,p5lyc28scvl,0.013333333333333308,0.95,419,36,610924,Test,state,0,2436,2,true,1,"[""stimuli\\STATE\\USED\\Sbriefcasemetal2.JPG"",""stimuli\\STATE\\USED\\Sbriefcasemetal1.JPG""]",stimuli\STATE\USED\Sbriefcasemetal2.JPG,stimuli\STATE\USED\Sbriefcasemetal2.JPG,"I think this experiment was about how well people are able to remember slight differences in images, and/or if certain images are inherently easier to remember or distinguish.",A lot of the images that I was asked to distinguish were already images that stood out to me more and had an easier time to memorize.,"Not technically an issue but I had taken the version of this experiment before it was fixed and I still had remembered some of these images from the first time I took it, which likely affected my data (i.e selecting an image I saw from the first time when I'd actually seen a different image this second time)"
moose,p5lyc28scvl,0.013333333333333308,0.95,421,37,614163,Test,exemplar,0,1559,4,true,1,"[""stimuli\\EXEMPLAR\\USED\\Esunglasses1.jpg"",""stimuli\\EXEMPLAR\\USED\\Esunglasses2.jpg""]",stimuli\EXEMPLAR\USED\Esunglasses1.jpg,stimuli\EXEMPLAR\USED\Esunglasses1.jpg,"I think this experiment was about how well people are able to remember slight differences in images, and/or if certain images are inherently easier to remember or distinguish.",A lot of the images that I was asked to distinguish were already images that stood out to me more and had an easier time to memorize.,"Not technically an issue but I had taken the version of this experiment before it was fixed and I still had remembered some of these images from the first time I took it, which likely affected my data (i.e selecting an image I saw from the first time when I'd actually seen a different image this second time)"
moose,p5lyc28scvl,0.013333333333333308,0.95,423,38,616848,Test,exemplar,0,1274,4,true,1,"[""stimuli\\EXEMPLAR\\USED\\Ewineglass1.jpg"",""stimuli\\EXEMPLAR\\USED\\Ewineglass2.jpg""]",stimuli\EXEMPLAR\USED\Ewineglass1.jpg,stimuli\EXEMPLAR\USED\Ewineglass1.jpg,"I think this experiment was about how well people are able to remember slight differences in images, and/or if certain images are inherently easier to remember or distinguish.",A lot of the images that I was asked to distinguish were already images that stood out to me more and had an easier time to memorize.,"Not technically an issue but I had taken the version of this experiment before it was fixed and I still had remembered some of these images from the first time I took it, which likely affected my data (i.e selecting an image I saw from the first time when I'd actually seen a different image this second time)"
moose,p5lyc28scvl,0.013333333333333308,0.95,425,39,621723,Test,state,0,3381,5,true,1,"[""stimuli\\STATE\\USED\\Spotpan1.JPG"",""stimuli\\STATE\\USED\\Spotpan2.JPG""]",stimuli\STATE\USED\Spotpan1.JPG,stimuli\STATE\USED\Spotpan1.JPG,"I think this experiment was about how well people are able to remember slight differences in images, and/or if certain images are inherently easier to remember or distinguish.",A lot of the images that I was asked to distinguish were already images that stood out to me more and had an easier time to memorize.,"Not technically an issue but I had taken the version of this experiment before it was fixed and I still had remembered some of these images from the first time I took it, which likely affected my data (i.e selecting an image I saw from the first time when I'd actually seen a different image this second time)"
moose,p5lyc28scvl,0.013333333333333308,0.95,427,40,626127,Test,state,0,1110,5,true,1,"[""stimuli\\STATE\\USED\\Sgiftbox2.jpg"",""stimuli\\STATE\\USED\\Sgiftbox1.jpg""]",stimuli\STATE\USED\Sgiftbox2.jpg,stimuli\STATE\USED\Sgiftbox2.jpg,"I think this experiment was about how well people are able to remember slight differences in images, and/or if certain images are inherently easier to remember or distinguish.",A lot of the images that I was asked to distinguish were already images that stood out to me more and had an easier time to memorize.,"Not technically an issue but I had taken the version of this experiment before it was fixed and I still had remembered some of these images from the first time I took it, which likely affected my data (i.e selecting an image I saw from the first time when I'd actually seen a different image this second time)"
moose,p5lyc28scvl,0.013333333333333308,0.95,429,41,628901,Test,exemplar,0,1379,5,true,1,"[""stimuli\\EXEMPLAR\\USED\\Echopsticks1.jpg"",""stimuli\\EXEMPLAR\\USED\\Echopsticks2.jpg""]",stimuli\EXEMPLAR\USED\Echopsticks1.jpg,stimuli\EXEMPLAR\USED\Echopsticks1.jpg,"I think this experiment was about how well people are able to remember slight differences in images, and/or if certain images are inherently easier to remember or distinguish.",A lot of the images that I was asked to distinguish were already images that stood out to me more and had an easier time to memorize.,"Not technically an issue but I had taken the version of this experiment before it was fixed and I still had remembered some of these images from the first time I took it, which likely affected my data (i.e selecting an image I saw from the first time when I'd actually seen a different image this second time)"
moose,p5lyc28scvl,0.013333333333333308,0.95,431,42,632674,Test,state,1,1754,5,true,1,"[""stimuli\\STATE\\USED\\Shandshake1.JPG"",""stimuli\\STATE\\USED\\Shandshake2.JPG""]",stimuli\STATE\USED\Shandshake2.JPG,stimuli\STATE\USED\Shandshake2.JPG,"I think this experiment was about how well people are able to remember slight differences in images, and/or if certain images are inherently easier to remember or distinguish.",A lot of the images that I was asked to distinguish were already images that stood out to me more and had an easier time to memorize.,"Not technically an issue but I had taken the version of this experiment before it was fixed and I still had remembered some of these images from the first time I took it, which likely affected my data (i.e selecting an image I saw from the first time when I'd actually seen a different image this second time)"
moose,p5lyc28scvl,0.013333333333333308,0.95,433,43,635523,Test,state,1,1265,3,true,1,"[""stimuli\\STATE\\USED\\Sbooks1.JPG"",""stimuli\\STATE\\USED\\Sbooks2.JPG""]",stimuli\STATE\USED\Sbooks2.JPG,stimuli\STATE\USED\Sbooks2.JPG,"I think this experiment was about how well people are able to remember slight differences in images, and/or if certain images are inherently easier to remember or distinguish.",A lot of the images that I was asked to distinguish were already images that stood out to me more and had an easier time to memorize.,"Not technically an issue but I had taken the version of this experiment before it was fixed and I still had remembered some of these images from the first time I took it, which likely affected my data (i.e selecting an image I saw from the first time when I'd actually seen a different image this second time)"
moose,p5lyc28scvl,0.013333333333333308,0.95,435,44,638539,Test,state,0,1753,1,true,1,"[""stimuli\\STATE\\USED\\Sphoneold2.jpg"",""stimuli\\STATE\\USED\\Sphoneold1.jpg""]",stimuli\STATE\USED\Sphoneold2.jpg,stimuli\STATE\USED\Sphoneold2.jpg,"I think this experiment was about how well people are able to remember slight differences in images, and/or if certain images are inherently easier to remember or distinguish.",A lot of the images that I was asked to distinguish were already images that stood out to me more and had an easier time to memorize.,"Not technically an issue but I had taken the version of this experiment before it was fixed and I still had remembered some of these images from the first time I took it, which likely affected my data (i.e selecting an image I saw from the first time when I'd actually seen a different image this second time)"
moose,p5lyc28scvl,0.013333333333333308,0.95,437,45,641884,Test,state,0,1380,4,true,1,"[""stimuli\\STATE\\USED\\Slockbox1.jpg"",""stimuli\\STATE\\USED\\Slockbox2.jpg""]",stimuli\STATE\USED\Slockbox1.jpg,stimuli\STATE\USED\Slockbox1.jpg,"I think this experiment was about how well people are able to remember slight differences in images, and/or if certain images are inherently easier to remember or distinguish.",A lot of the images that I was asked to distinguish were already images that stood out to me more and had an easier time to memorize.,"Not technically an issue but I had taken the version of this experiment before it was fixed and I still had remembered some of these images from the first time I took it, which likely affected my data (i.e selecting an image I saw from the first time when I'd actually seen a different image this second time)"
moose,p5lyc28scvl,0.013333333333333308,0.95,439,46,645011,Test,state,0,1739,4,true,1,"[""stimuli\\STATE\\USED\\Spicnicbasket1.jpg"",""stimuli\\STATE\\USED\\Spicnicbasket2.jpg""]",stimuli\STATE\USED\Spicnicbasket1.jpg,stimuli\STATE\USED\Spicnicbasket1.jpg,"I think this experiment was about how well people are able to remember slight differences in images, and/or if certain images are inherently easier to remember or distinguish.",A lot of the images that I was asked to distinguish were already images that stood out to me more and had an easier time to memorize.,"Not technically an issue but I had taken the version of this experiment before it was fixed and I still had remembered some of these images from the first time I took it, which likely affected my data (i.e selecting an image I saw from the first time when I'd actually seen a different image this second time)"
moose,p5lyc28scvl,0.013333333333333308,0.95,441,47,648491,Test,exemplar,1,1896,1,true,1,"[""stimuli\\EXEMPLAR\\USED\\Eballoon1.jpg"",""stimuli\\EXEMPLAR\\USED\\Eballoon2.jpg""]",stimuli\EXEMPLAR\USED\Eballoon2.jpg,stimuli\EXEMPLAR\USED\Eballoon2.jpg,"I think this experiment was about how well people are able to remember slight differences in images, and/or if certain images are inherently easier to remember or distinguish.",A lot of the images that I was asked to distinguish were already images that stood out to me more and had an easier time to memorize.,"Not technically an issue but I had taken the version of this experiment before it was fixed and I still had remembered some of these images from the first time I took it, which likely affected my data (i.e selecting an image I saw from the first time when I'd actually seen a different image this second time)"
moose,p5lyc28scvl,0.013333333333333308,0.95,443,48,652909,Test,state,0,2969,4,true,1,"[""stimuli\\STATE\\USED\\Sdonut1.jpg"",""stimuli\\STATE\\USED\\Sdonut2.jpg""]",stimuli\STATE\USED\Sdonut1.jpg,stimuli\STATE\USED\Sdonut1.jpg,"I think this experiment was about how well people are able to remember slight differences in images, and/or if certain images are inherently easier to remember or distinguish.",A lot of the images that I was asked to distinguish were already images that stood out to me more and had an easier time to memorize.,"Not technically an issue but I had taken the version of this experiment before it was fixed and I still had remembered some of these images from the first time I took it, which likely affected my data (i.e selecting an image I saw from the first time when I'd actually seen a different image this second time)"
moose,p5lyc28scvl,0.013333333333333308,0.95,445,49,655676,Test,exemplar,1,1529,3,true,1,"[""stimuli\\EXEMPLAR\\USED\\Egame1.jpg"",""stimuli\\EXEMPLAR\\USED\\Egame2.jpg""]",stimuli\EXEMPLAR\USED\Egame2.jpg,stimuli\EXEMPLAR\USED\Egame2.jpg,"I think this experiment was about how well people are able to remember slight differences in images, and/or if certain images are inherently easier to remember or distinguish.",A lot of the images that I was asked to distinguish were already images that stood out to me more and had an easier time to memorize.,"Not technically an issue but I had taken the version of this experiment before it was fixed and I still had remembered some of these images from the first time I took it, which likely affected my data (i.e selecting an image I saw from the first time when I'd actually seen a different image this second time)"
moose,p5lyc28scvl,0.013333333333333308,0.95,447,50,660206,Test,exemplar,1,2938,5,true,1,"[""stimuli\\EXEMPLAR\\USED\\Epeppers2.jpg"",""stimuli\\EXEMPLAR\\USED\\Epeppers1.jpg""]",stimuli\EXEMPLAR\USED\Epeppers1.jpg,stimuli\EXEMPLAR\USED\Epeppers1.jpg,"I think this experiment was about how well people are able to remember slight differences in images, and/or if certain images are inherently easier to remember or distinguish.",A lot of the images that I was asked to distinguish were already images that stood out to me more and had an easier time to memorize.,"Not technically an issue but I had taken the version of this experiment before it was fixed and I still had remembered some of these images from the first time I took it, which likely affected my data (i.e selecting an image I saw from the first time when I'd actually seen a different image this second time)"
flamingo,p6labg5etft,0.00666666666666671,0.9,349,1,491634,Test,exemplar,0,1404,5,true,1,"[""stimuli\\EXEMPLAR\\USED\\Echocolatebar1.jpg"",""stimuli\\EXEMPLAR\\USED\\Echocolatebar2.jpg""]",stimuli\EXEMPLAR\USED\Echocolatebar1.jpg,stimuli\EXEMPLAR\USED\Echocolatebar1.jpg,Testing how well we rememeber images and if we can recall them mixed in with similar images.,"Color, angle orientation, quality",no
flamingo,p6labg5etft,0.00666666666666671,0.9,351,2,496358,Test,exemplar,0,2604,4,true,1,"[""stimuli\\EXEMPLAR\\USED\\Espraybottle2.jpg"",""stimuli\\EXEMPLAR\\USED\\Espraybottle1.jpg""]",stimuli\EXEMPLAR\USED\Espraybottle2.jpg,stimuli\EXEMPLAR\USED\Espraybottle2.jpg,Testing how well we rememeber images and if we can recall them mixed in with similar images.,"Color, angle orientation, quality",no
flamingo,p6labg5etft,0.00666666666666671,0.9,353,3,499482,Test,state,0,1535,2,true,1,"[""stimuli\\STATE\\USED\\Sbreadslice1.jpg"",""stimuli\\STATE\\USED\\Sbreadslice2.jpg""]",stimuli\STATE\USED\Sbreadslice1.jpg,stimuli\STATE\USED\Sbreadslice1.jpg,Testing how well we rememeber images and if we can recall them mixed in with similar images.,"Color, angle orientation, quality",no
flamingo,p6labg5etft,0.00666666666666671,0.9,355,4,503755,Test,exemplar,1,1527,4,true,1,"[""stimuli\\EXEMPLAR\\USED\\Eheadphones2.jpg"",""stimuli\\EXEMPLAR\\USED\\Eheadphones1.jpg""]",stimuli\EXEMPLAR\USED\Eheadphones1.jpg,stimuli\EXEMPLAR\USED\Eheadphones1.jpg,Testing how well we rememeber images and if we can recall them mixed in with similar images.,"Color, angle orientation, quality",no
flamingo,p6labg5etft,0.00666666666666671,0.9,357,5,507016,Test,state,0,1265,5,true,1,"[""stimuli\\STATE\\USED\\Sstoplight1.jpg"",""stimuli\\STATE\\USED\\Sstoplight2.jpg""]",stimuli\STATE\USED\Sstoplight1.jpg,stimuli\STATE\USED\Sstoplight1.jpg,Testing how well we rememeber images and if we can recall them mixed in with similar images.,"Color, angle orientation, quality",no
flamingo,p6labg5etft,0.00666666666666671,0.9,359,6,510522,Test,exemplar,0,1905,3,false,0,"[""stimuli\\EXEMPLAR\\USED\\Emicroscope1.jpg"",""stimuli\\EXEMPLAR\\USED\\Emicroscope2.jpg""]",stimuli\EXEMPLAR\USED\Emicroscope2.jpg,stimuli\EXEMPLAR\USED\Emicroscope1.jpg,Testing how well we rememeber images and if we can recall them mixed in with similar images.,"Color, angle orientation, quality",no
flamingo,p6labg5etft,0.00666666666666671,0.9,361,7,515777,Test,state,0,2588,3,true,1,"[""stimuli\\STATE\\USED\\Sgiftbag1.jpg"",""stimuli\\STATE\\USED\\Sgiftbag2.jpg""]",stimuli\STATE\USED\Sgiftbag1.jpg,stimuli\STATE\USED\Sgiftbag1.jpg,Testing how well we rememeber images and if we can recall them mixed in with similar images.,"Color, angle orientation, quality",no
flamingo,p6labg5etft,0.00666666666666671,0.9,363,8,519407,Test,exemplar,0,1479,2,false,0,"[""stimuli\\EXEMPLAR\\USED\\Ewheelchair2.jpg"",""stimuli\\EXEMPLAR\\USED\\Ewheelchair1.jpg""]",stimuli\EXEMPLAR\USED\Ewheelchair1.jpg,stimuli\EXEMPLAR\USED\Ewheelchair2.jpg,Testing how well we rememeber images and if we can recall them mixed in with similar images.,"Color, angle orientation, quality",no
flamingo,p6labg5etft,0.00666666666666671,0.9,365,9,523873,Test,exemplar,1,2017,2,true,1,"[""stimuli\\EXEMPLAR\\USED\\Ecalculator2.jpg"",""stimuli\\EXEMPLAR\\USED\\Ecalculator1.jpg""]",stimuli\EXEMPLAR\USED\Ecalculator1.jpg,stimuli\EXEMPLAR\USED\Ecalculator1.jpg,Testing how well we rememeber images and if we can recall them mixed in with similar images.,"Color, angle orientation, quality",no
flamingo,p6labg5etft,0.00666666666666671,0.9,367,10,527753,Test,exemplar,0,1920,3,true,1,"[""stimuli\\EXEMPLAR\\USED\\Econe2.jpg"",""stimuli\\EXEMPLAR\\USED\\Econe1.jpg""]",stimuli\EXEMPLAR\USED\Econe2.jpg,stimuli\EXEMPLAR\USED\Econe2.jpg,Testing how well we rememeber images and if we can recall them mixed in with similar images.,"Color, angle orientation, quality",no
flamingo,p6labg5etft,0.00666666666666671,0.9,369,11,530836,Test,exemplar,0,1559,5,true,1,"[""stimuli\\EXEMPLAR\\USED\\Ecake1.jpg"",""stimuli\\EXEMPLAR\\USED\\Ecake2.jpg""]",stimuli\EXEMPLAR\USED\Ecake1.jpg,stimuli\EXEMPLAR\USED\Ecake1.jpg,Testing how well we rememeber images and if we can recall them mixed in with similar images.,"Color, angle orientation, quality",no
