"success","rt","trial_type","trial_index","plugin_version","time_elapsed","random_id","participant","response","stimulus","timeout","failed_images","failed_audio","failed_video","trial_phase","repeated","correct","choice_images","correct_image","choice","slider_start"
"true","4568","fullscreen","0","2.0.0","5605","p3zegmnxubt","camel","","","","","","","","","","","","",""
"","995","survey-text","1","2.0.0","6636","p3zegmnxubt","camel","{""participant_id"":""camel""}","","","","","","","","","","","",""
"","882","html-keyboard-response","2","2.0.0","7519","p3zegmnxubt","camel"," ","<p>Welcome to the Massive Memory Experiment. Press any key to move on. </p>","","","","","","","","","","",""
"","19286","html-keyboard-response","3","2.0.0","26808","p3zegmnxubt","camel"," ","
      <div style='width:900px;margin: auto;'><p>In the first section you will see a stream of images, with fixation crosses in between each image.</p>
      <p>Each image will remain on screen for 2 seconds. Your job is to detect images that you have seen before within the experiment. Whenever you see an image that you have seen previously <b>at any point in the stream of images</b>, press the spacebar.</p>
      <p>We will let you know if you have correctly or falsely clicked the spacebar on an image by changing the color of the fixation cross.</p>
      <p>If you press the spacebar correctly (the image really did appear earlier), the fixation cross will turn green. If you pressed the spacebar incorrectly, the fixation cross will turn red.</p>
      <p>Please watch carefully to detect the images that show up again!</p>
      <p>Press any key to start.</p></div>
    ","","","","","","","","","","",""
"true","","preload","4","2.0.0","28058","p3zegmnxubt","camel","","","false","[]","[]","[]","","","","","","",""
"","null","image-keyboard-response","5","2.0.0","30069","p3zegmnxubt","camel","null","stimuli\EXEMPLAR\USED\Espraybottle2.jpg","","","","","Memory","false","null","","","",""
"","null","html-keyboard-response","6","2.0.0","30578","p3zegmnxubt","camel","null","<div style=""font-size:60px; color: black;"">+</div>","","","","","","","","","","",""
"","null","image-keyboard-response","7","2.0.0","32584","p3zegmnxubt","camel","null","stimuli\STATE\USED\Stypewriter2.jpg","","","","","Memory","false","null","","","",""
"","null","html-keyboard-response","8","2.0.0","33091","p3zegmnxubt","camel","null","<div style=""font-size:60px; color: black;"">+</div>","","","","","","","","","","",""
"","null","image-keyboard-response","9","2.0.0","35107","p3zegmnxubt","camel","null","stimuli\STATE\USED\Sphone1.JPG","","","","","Memory","false","null","","","",""
"","null","html-keyboard-response","10","2.0.0","35615","p3zegmnxubt","camel","null","<div style=""font-size:60px; color: black;"">+</div>","","","","","","","","","","",""
"","null","image-keyboard-response","11","2.0.0","37627","p3zegmnxubt","camel","null","stimuli\EXEMPLAR\USED\Epotatochips1.jpg","","","","","Memory","false","null","","","",""
"","null","html-keyboard-response","12","2.0.0","38135","p3zegmnxubt","camel","null","<div style=""font-size:60px; color: black;"">+</div>","","","","","","","","","","",""
"","496","image-keyboard-response","13","2.0.0","40149","p3zegmnxubt","camel"," ","stimuli\EXEMPLAR\USED\Espraybottle2.jpg","","","","","Memory","true","true","","","",""
"","null","html-keyboard-response","14","2.0.0","40656","p3zegmnxubt","camel","null","<div style=""font-size:60px; color: green;"">+</div>","","","","","","","","","","",""
"","null","image-keyboard-response","15","2.0.0","42672","p3zegmnxubt","camel","null","stimuli\STATE\USED\Sumbrella2.jpg","","","","","Memory","false","null","","","",""
"","null","html-keyboard-response","16","2.0.0","43209","p3zegmnxubt","camel","null","<div style=""font-size:60px; color: black;"">+</div>","","","","","","","","","","",""
"","null","image-keyboard-response","17","2.0.0","45223","p3zegmnxubt","camel","null","stimuli\STATE\USED\Spestle2.jpg","","","","","Memory","false","null","","","",""
"","null","html-keyboard-response","18","2.0.0","45731","p3zegmnxubt","camel","null","<div style=""font-size:60px; color: black;"">+</div>","","","","","","","","","","",""
"","null","image-keyboard-response","19","2.0.0","47747","p3zegmnxubt","camel","null","stimuli\STATE\USED\Sredcabbage2.jpg","","","","","Memory","false","null","","","",""
"","null","html-keyboard-response","20","2.0.0","48255","p3zegmnxubt","camel","null","<div style=""font-size:60px; color: black;"">+</div>","","","","","","","","","","",""
"","null","image-keyboard-response","21","2.0.0","50260","p3zegmnxubt","camel","null","stimuli\STATE\USED\Sbabytoy2.JPG","","","","","Memory","false","null","","","",""
"","null","html-keyboard-response","22","2.0.0","50767","p3zegmnxubt","camel","null","<div style=""font-size:60px; color: black;"">+</div>","","","","","","","","","","",""
"","null","image-keyboard-response","23","2.0.0","52772","p3zegmnxubt","camel","null","stimuli\EXEMPLAR\USED\Epiano2.jpg","","","","","Memory","false","null","","","",""
"","null","html-keyboard-response","24","2.0.0","53298","p3zegmnxubt","camel","null","<div style=""font-size:60px; color: black;"">+</div>","","","","","","","","","","",""
"","null","image-keyboard-response","25","2.0.0","55323","p3zegmnxubt","camel","null","stimuli\EXEMPLAR\USED\Esantahat1.jpg","","","","","Memory","false","null","","","",""
"","null","html-keyboard-response","26","2.0.0","55831","p3zegmnxubt","camel","null","<div style=""font-size:60px; color: black;"">+</div>","","","","","","","","","","",""
"","833","image-keyboard-response","27","2.0.0","57840","p3zegmnxubt","camel"," ","stimuli\STATE\USED\Sredcabbage2.jpg","","","","","Memory","true","true","","","",""
"","null","html-keyboard-response","28","2.0.0","58346","p3zegmnxubt","camel","null","<div style=""font-size:60px; color: green;"">+</div>","","","","","","","","","","",""
"","null","image-keyboard-response","29","2.0.0","60356","p3zegmnxubt","camel","null","stimuli\EXEMPLAR\USED\Econe1.jpg","","","","","Memory","false","null","","","",""
"","null","html-keyboard-response","30","2.0.0","60861","p3zegmnxubt","camel","null","<div style=""font-size:60px; color: black;"">+</div>","","","","","","","","","","",""
"","null","image-keyboard-response","31","2.0.0","62871","p3zegmnxubt","camel","null","stimuli\EXEMPLAR\USED\Ekayak1.jpg","","","","","Memory","false","null","","","",""
"","null","html-keyboard-response","32","2.0.0","63380","p3zegmnxubt","camel","null","<div style=""font-size:60px; color: black;"">+</div>","","","","","","","","","","",""
"","null","image-keyboard-response","33","2.0.0","65400","p3zegmnxubt","camel","null","stimuli\EXEMPLAR\USED\Etrowel1.jpg","","","","","Memory","false","null","","","",""
"","null","html-keyboard-response","34","2.0.0","65907","p3zegmnxubt","camel","null","<div style=""font-size:60px; color: black;"">+</div>","","","","","","","","","","",""
"","null","image-keyboard-response","35","2.0.0","67918","p3zegmnxubt","camel","null","stimuli\EXEMPLAR\USED\Ebread1.jpg","","","","","Memory","false","null","","","",""
"","null","html-keyboard-response","36","2.0.0","68427","p3zegmnxubt","camel","null","<div style=""font-size:60px; color: black;"">+</div>","","","","","","","","","","",""
"","null","image-keyboard-response","37","2.0.0","70439","p3zegmnxubt","camel","null","stimuli\STATE\USED\Shairbrush2.jpg","","","","","Memory","false","null","","","",""
"","null","html-keyboard-response","38","2.0.0","70950","p3zegmnxubt","camel","null","<div style=""font-size:60px; color: black;"">+</div>","","","","","","","","","","",""
"","null","image-keyboard-response","39","2.0.0","72960","p3zegmnxubt","camel","null","stimuli\STATE\USED\Sgiftbox1.jpg","","","","","Memory","false","null","","","",""
"","null","html-keyboard-response","40","2.0.0","73499","p3zegmnxubt","camel","null","<div style=""font-size:60px; color: black;"">+</div>","","","","","","","","","","",""
"","596","image-keyboard-response","41","2.0.0","75506","p3zegmnxubt","camel"," ","stimuli\EXEMPLAR\USED\Etrowel1.jpg","","","","","Memory","true","true","","","",""
"","null","html-keyboard-response","42","2.0.0","76017","p3zegmnxubt","camel","null","<div style=""font-size:60px; color: green;"">+</div>","","","","","","","","","","",""
"","null","image-keyboard-response","43","2.0.0","78026","p3zegmnxubt","camel","null","stimuli\EXEMPLAR\USED\Eholepunch2.jpg","","","","","Memory","false","null","","","",""
"","null","html-keyboard-response","44","2.0.0","78534","p3zegmnxubt","camel","null","<div style=""font-size:60px; color: black;"">+</div>","","","","","","","","","","",""
"","null","image-keyboard-response","45","2.0.0","80549","p3zegmnxubt","camel","null","stimuli\STATE\USED\Sdonut2.jpg","","","","","Memory","false","null","","","",""
"","null","html-keyboard-response","46","2.0.0","81064","p3zegmnxubt","camel","null","<div style=""font-size:60px; color: black;"">+</div>","","","","","","","","","","",""
"","null","image-keyboard-response","47","2.0.0","83079","p3zegmnxubt","camel","null","stimuli\EXEMPLAR\USED\Esunglasses2.jpg","","","","","Memory","false","null","","","",""
"","null","html-keyboard-response","48","2.0.0","83589","p3zegmnxubt","camel","null","<div style=""font-size:60px; color: black;"">+</div>","","","","","","","","","","",""
"","null","image-keyboard-response","49","2.0.0","85597","p3zegmnxubt","camel","null","stimuli\EXEMPLAR\USED\Edispenser1.jpg","","","","","Memory","false","null","","","",""
"","null","html-keyboard-response","50","2.0.0","86111","p3zegmnxubt","camel","null","<div style=""font-size:60px; color: black;"">+</div>","","","","","","","","","","",""
"","null","image-keyboard-response","51","2.0.0","88114","p3zegmnxubt","camel","null","stimuli\EXEMPLAR\USED\Elog2.jpg","","","","","Memory","false","null","","","",""
"","null","html-keyboard-response","52","2.0.0","88641","p3zegmnxubt","camel","null","<div style=""font-size:60px; color: black;"">+</div>","","","","","","","","","","",""
"","743","image-keyboard-response","53","2.0.0","90650","p3zegmnxubt","camel"," ","stimuli\STATE\USED\Sdonut2.jpg","","","","","Memory","true","true","","","",""
"","null","html-keyboard-response","54","2.0.0","91162","p3zegmnxubt","camel","null","<div style=""font-size:60px; color: green;"">+</div>","","","","","","","","","","",""
"","null","image-keyboard-response","55","2.0.0","93169","p3zegmnxubt","camel","null","stimuli\STATE\USED\Srhino1.jpg","","","","","Memory","false","null","","","",""
"","null","html-keyboard-response","56","2.0.0","93698","p3zegmnxubt","camel","null","<div style=""font-size:60px; color: black;"">+</div>","","","","","","","","","","",""
"","null","image-keyboard-response","57","2.0.0","95700","p3zegmnxubt","camel","null","stimuli\STATE\USED\Sapplesgreenbasket2.jpg","","","","","Memory","false","null","","","",""
"","null","html-keyboard-response","58","2.0.0","96214","p3zegmnxubt","camel","null","<div style=""font-size:60px; color: black;"">+</div>","","","","","","","","","","",""
"","null","image-keyboard-response","59","2.0.0","98219","p3zegmnxubt","camel","null","stimuli\EXEMPLAR\USED\Ebinoculars1.jpg","","","","","Memory","false","null","","","",""
"","null","html-keyboard-response","60","2.0.0","98767","p3zegmnxubt","camel","null","<div style=""font-size:60px; color: black;"">+</div>","","","","","","","","","","",""
"","null","image-keyboard-response","61","2.0.0","100780","p3zegmnxubt","camel","null","stimuli\STATE\USED\Smedicaltape1.jpg","","","","","Memory","false","null","","","",""
"","null","html-keyboard-response","62","2.0.0","101294","p3zegmnxubt","camel","null","<div style=""font-size:60px; color: black;"">+</div>","","","","","","","","","","",""
"","551","image-keyboard-response","63","2.0.0","103304","p3zegmnxubt","camel"," ","stimuli\STATE\USED\Srhino1.jpg","","","","","Memory","true","true","","","",""
"","null","html-keyboard-response","64","2.0.0","103817","p3zegmnxubt","camel","null","<div style=""font-size:60px; color: green;"">+</div>","","","","","","","","","","",""
"","null","image-keyboard-response","65","2.0.0","105825","p3zegmnxubt","camel","null","stimuli\STATE\USED\Spotpan2.JPG","","","","","Memory","false","null","","","",""
"","null","html-keyboard-response","66","2.0.0","106336","p3zegmnxubt","camel","null","<div style=""font-size:60px; color: black;"">+</div>","","","","","","","","","","",""
"","null","image-keyboard-response","67","2.0.0","108353","p3zegmnxubt","camel","null","stimuli\STATE\USED\Ssweater1.jpg","","","","","Memory","false","null","","","",""
"","null","html-keyboard-response","68","2.0.0","108863","p3zegmnxubt","camel","null","<div style=""font-size:60px; color: black;"">+</div>","","","","","","","","","","",""
"","null","image-keyboard-response","69","2.0.0","110867","p3zegmnxubt","camel","null","stimuli\STATE\USED\Sdrum1.jpg","","","","","Memory","false","null","","","",""
"","null","html-keyboard-response","70","2.0.0","111379","p3zegmnxubt","camel","null","<div style=""font-size:60px; color: black;"">+</div>","","","","","","","","","","",""
"","null","image-keyboard-response","71","2.0.0","113387","p3zegmnxubt","camel","null","stimuli\STATE\USED\Sapplesredbasket2.JPG","","","","","Memory","false","null","","","",""
"","null","html-keyboard-response","72","2.0.0","113911","p3zegmnxubt","camel","null","<div style=""font-size:60px; color: black;"">+</div>","","","","","","","","","","",""
"","null","image-keyboard-response","73","2.0.0","115928","p3zegmnxubt","camel","null","stimuli\STATE\USED\Sbox1.jpg","","","","","Memory","false","null","","","",""
"","null","html-keyboard-response","74","2.0.0","116440","p3zegmnxubt","camel","null","<div style=""font-size:60px; color: black;"">+</div>","","","","","","","","","","",""
"","null","image-keyboard-response","75","2.0.0","118448","p3zegmnxubt","camel","null","stimuli\EXEMPLAR\USED\Etoyhand2.jpg","","","","","Memory","false","null","","","",""
"","null","html-keyboard-response","76","2.0.0","118993","p3zegmnxubt","camel","null","<div style=""font-size:60px; color: black;"">+</div>","","","","","","","","","","",""
"","654","image-keyboard-response","77","2.0.0","120994","p3zegmnxubt","camel"," ","stimuli\STATE\USED\Sdrum1.jpg","","","","","Memory","true","true","","","",""
"","null","html-keyboard-response","78","2.0.0","121509","p3zegmnxubt","camel","null","<div style=""font-size:60px; color: green;"">+</div>","","","","","","","","","","",""
"","null","image-keyboard-response","79","2.0.0","123525","p3zegmnxubt","camel","null","stimuli\EXEMPLAR\USED\Ebrick1.jpg","","","","","Memory","false","null","","","",""
"","null","html-keyboard-response","80","2.0.0","124055","p3zegmnxubt","camel","null","<div style=""font-size:60px; color: black;"">+</div>","","","","","","","","","","",""
"","null","image-keyboard-response","81","2.0.0","126066","p3zegmnxubt","camel","null","stimuli\EXEMPLAR\USED\Eframe1.jpg","","","","","Memory","false","null","","","",""
"","null","html-keyboard-response","82","2.0.0","126567","p3zegmnxubt","camel","null","<div style=""font-size:60px; color: black;"">+</div>","","","","","","","","","","",""
"","null","image-keyboard-response","83","2.0.0","128581","p3zegmnxubt","camel","null","stimuli\STATE\USED\Sscanner1.JPG","","","","","Memory","false","null","","","",""
"","null","html-keyboard-response","84","2.0.0","129094","p3zegmnxubt","camel","null","<div style=""font-size:60px; color: black;"">+</div>","","","","","","","","","","",""
"","null","image-keyboard-response","85","2.0.0","131100","p3zegmnxubt","camel","null","stimuli\STATE\USED\Sphoneold1.jpg","","","","","Memory","false","null","","","",""
"","null","html-keyboard-response","86","2.0.0","131602","p3zegmnxubt","camel","null","<div style=""font-size:60px; color: black;"">+</div>","","","","","","","","","","",""
"","null","image-keyboard-response","87","2.0.0","133610","p3zegmnxubt","camel","null","stimuli\STATE\USED\Smetronome1.jpg","","","","","Memory","false","null","","","",""
"","null","html-keyboard-response","88","2.0.0","134171","p3zegmnxubt","camel","null","<div style=""font-size:60px; color: black;"">+</div>","","","","","","","","","","",""
"","null","image-keyboard-response","89","2.0.0","136178","p3zegmnxubt","camel","null","stimuli\STATE\USED\Sdryer2.jpg","","","","","Memory","false","null","","","",""
"","null","html-keyboard-response","90","2.0.0","136687","p3zegmnxubt","camel","null","<div style=""font-size:60px; color: black;"">+</div>","","","","","","","","","","",""
"","null","image-keyboard-response","91","2.0.0","138703","p3zegmnxubt","camel","null","stimuli\EXEMPLAR\USED\Eteapot1.JPG","","","","","Memory","false","null","","","",""
"","null","html-keyboard-response","92","2.0.0","139213","p3zegmnxubt","camel","null","<div style=""font-size:60px; color: black;"">+</div>","","","","","","","","","","",""
"","null","image-keyboard-response","93","2.0.0","141220","p3zegmnxubt","camel","null","stimuli\EXEMPLAR\USED\Ebracelet2.jpg","","","","","Memory","false","null","","","",""
"","null","html-keyboard-response","94","2.0.0","141732","p3zegmnxubt","camel","null","<div style=""font-size:60px; color: black;"">+</div>","","","","","","","","","","",""
"","null","image-keyboard-response","95","2.0.0","143740","p3zegmnxubt","camel","null","stimuli\STATE\USED\Spolarbear1.jpg","","","","","Memory","false","null","","","",""
"","null","html-keyboard-response","96","2.0.0","144268","p3zegmnxubt","camel","null","<div style=""font-size:60px; color: black;"">+</div>","","","","","","","","","","",""
"","null","image-keyboard-response","97","2.0.0","146278","p3zegmnxubt","camel","null","stimuli\EXEMPLAR\USED\Ehanger2.jpg","","","","","Memory","false","null","","","",""
"","null","html-keyboard-response","98","2.0.0","146792","p3zegmnxubt","camel","null","<div style=""font-size:60px; color: black;"">+</div>","","","","","","","","","","",""
"","null","image-keyboard-response","99","2.0.0","148799","p3zegmnxubt","camel","null","stimuli\STATE\USED\Siron1.jpg","","","","","Memory","false","null","","","",""
"","null","html-keyboard-response","100","2.0.0","149325","p3zegmnxubt","camel","null","<div style=""font-size:60px; color: black;"">+</div>","","","","","","","","","","",""
"","null","image-keyboard-response","101","2.0.0","151338","p3zegmnxubt","camel","null","stimuli\EXEMPLAR\USED\Emuffler1.jpg","","","","","Memory","false","null","","","",""
"","null","html-keyboard-response","102","2.0.0","151852","p3zegmnxubt","camel","null","<div style=""font-size:60px; color: black;"">+</div>","","","","","","","","","","",""
"","613","image-keyboard-response","103","2.0.0","153858","p3zegmnxubt","camel"," ","stimuli\STATE\USED\Spolarbear1.jpg","","","","","Memory","true","true","","","",""
"","null","html-keyboard-response","104","2.0.0","154360","p3zegmnxubt","camel","null","<div style=""font-size:60px; color: green;"">+</div>","","","","","","","","","","",""
"","null","image-keyboard-response","105","2.0.0","156367","p3zegmnxubt","camel","null","stimuli\EXEMPLAR\USED\Etrain2.jpg","","","","","Memory","false","null","","","",""
"","null","html-keyboard-response","106","2.0.0","156882","p3zegmnxubt","camel","null","<div style=""font-size:60px; color: black;"">+</div>","","","","","","","","","","",""
"","1785","html-button-response","107","2.0.0","158668","p3zegmnxubt","camel","0","Are you still there?","","","","","Attention Check","","","","","",""
"","null","image-keyboard-response","108","2.0.0","160687","p3zegmnxubt","camel","null","stimuli\EXEMPLAR\USED\Emitt2.jpg","","","","","Memory","false","null","","","",""
"","null","html-keyboard-response","109","2.0.0","161201","p3zegmnxubt","camel","null","<div style=""font-size:60px; color: black;"">+</div>","","","","","","","","","","",""
"","null","image-keyboard-response","110","2.0.0","163211","p3zegmnxubt","camel","null","stimuli\EXEMPLAR\USED\Etractor2.jpg","","","","","Memory","false","null","","","",""
"","null","html-keyboard-response","111","2.0.0","163720","p3zegmnxubt","camel","null","<div style=""font-size:60px; color: black;"">+</div>","","","","","","","","","","",""
"","null","image-keyboard-response","112","2.0.0","165758","p3zegmnxubt","camel","null","stimuli\STATE\USED\Spadlock1.jpg","","","","","Memory","false","null","","","",""
"","null","html-keyboard-response","113","2.0.0","166267","p3zegmnxubt","camel","null","<div style=""font-size:60px; color: black;"">+</div>","","","","","","","","","","",""
"","null","image-keyboard-response","114","2.0.0","168280","p3zegmnxubt","camel","null","stimuli\EXEMPLAR\USED\Etrain2.jpg","","","","","Memory","true","null","","","",""
"","null","html-keyboard-response","115","2.0.0","168788","p3zegmnxubt","camel","null","<div style=""font-size:60px; color: black;"">+</div>","","","","","","","","","","",""
"","null","image-keyboard-response","116","2.0.0","170805","p3zegmnxubt","camel","null","stimuli\STATE\USED\Schinesefoodbox1.jpg","","","","","Memory","false","null","","","",""
"","null","html-keyboard-response","117","2.0.0","171316","p3zegmnxubt","camel","null","<div style=""font-size:60px; color: black;"">+</div>","","","","","","","","","","",""
"","null","image-keyboard-response","118","2.0.0","173320","p3zegmnxubt","camel","null","stimuli\EXEMPLAR\USED\Earch2.jpg","","","","","Memory","false","null","","","",""
"","null","html-keyboard-response","119","2.0.0","173830","p3zegmnxubt","camel","null","<div style=""font-size:60px; color: black;"">+</div>","","","","","","","","","","",""
"","null","image-keyboard-response","120","2.0.0","175843","p3zegmnxubt","camel","null","stimuli\EXEMPLAR\USED\Echocolatebar1.jpg","","","","","Memory","false","null","","","",""
"","null","html-keyboard-response","121","2.0.0","176353","p3zegmnxubt","camel","null","<div style=""font-size:60px; color: black;"">+</div>","","","","","","","","","","",""
"","null","image-keyboard-response","122","2.0.0","178366","p3zegmnxubt","camel","null","stimuli\EXEMPLAR\USED\Eicecream2.jpg","","","","","Memory","false","null","","","",""
"","null","html-keyboard-response","123","2.0.0","178876","p3zegmnxubt","camel","null","<div style=""font-size:60px; color: black;"">+</div>","","","","","","","","","","",""
"","null","image-keyboard-response","124","2.0.0","180888","p3zegmnxubt","camel","null","stimuli\STATE\USED\Scateringtray2.jpg","","","","","Memory","false","null","","","",""
"","null","html-keyboard-response","125","2.0.0","181397","p3zegmnxubt","camel","null","<div style=""font-size:60px; color: black;"">+</div>","","","","","","","","","","",""
"","null","image-keyboard-response","126","2.0.0","183406","p3zegmnxubt","camel","null","stimuli\EXEMPLAR\USED\Elei2.jpg","","","","","Memory","false","null","","","",""
"","null","html-keyboard-response","127","2.0.0","183914","p3zegmnxubt","camel","null","<div style=""font-size:60px; color: black;"">+</div>","","","","","","","","","","",""
"","null","image-keyboard-response","128","2.0.0","185917","p3zegmnxubt","camel","null","stimuli\STATE\USED\Sbureau2.JPG","","","","","Memory","false","null","","","",""
"","null","html-keyboard-response","129","2.0.0","186426","p3zegmnxubt","camel","null","<div style=""font-size:60px; color: black;"">+</div>","","","","","","","","","","",""
"","null","image-keyboard-response","130","2.0.0","188442","p3zegmnxubt","camel","null","stimuli\STATE\USED\Shandsign2.JPG","","","","","Memory","false","null","","","",""
"","null","html-keyboard-response","131","2.0.0","188950","p3zegmnxubt","camel","null","<div style=""font-size:60px; color: black;"">+</div>","","","","","","","","","","",""
"","null","image-keyboard-response","132","2.0.0","190961","p3zegmnxubt","camel","null","stimuli\EXEMPLAR\USED\Eheadphones1.jpg","","","","","Memory","false","null","","","",""
"","null","html-keyboard-response","133","2.0.0","191472","p3zegmnxubt","camel","null","<div style=""font-size:60px; color: black;"">+</div>","","","","","","","","","","",""
"","null","image-keyboard-response","134","2.0.0","193479","p3zegmnxubt","camel","null","stimuli\STATE\USED\Shandmirror2.jpg","","","","","Memory","false","null","","","",""
"","null","html-keyboard-response","135","2.0.0","193987","p3zegmnxubt","camel","null","<div style=""font-size:60px; color: black;"">+</div>","","","","","","","","","","",""
"","null","image-keyboard-response","136","2.0.0","196061","p3zegmnxubt","camel","null","stimuli\STATE\USED\Swaffleiron2.jpg","","","","","Memory","false","null","","","",""
"","null","html-keyboard-response","137","2.0.0","196572","p3zegmnxubt","camel","null","<div style=""font-size:60px; color: black;"">+</div>","","","","","","","","","","",""
"","null","image-keyboard-response","138","2.0.0","198582","p3zegmnxubt","camel","null","stimuli\EXEMPLAR\USED\Ewineglass2.jpg","","","","","Memory","false","null","","","",""
"","null","html-keyboard-response","139","2.0.0","199089","p3zegmnxubt","camel","null","<div style=""font-size:60px; color: black;"">+</div>","","","","","","","","","","",""
"","null","image-keyboard-response","140","2.0.0","201102","p3zegmnxubt","camel","null","stimuli\STATE\USED\Sbrushes1.jpg","","","","","Memory","false","null","","","",""
"","null","html-keyboard-response","141","2.0.0","201611","p3zegmnxubt","camel","null","<div style=""font-size:60px; color: black;"">+</div>","","","","","","","","","","",""
"","null","image-keyboard-response","142","2.0.0","203621","p3zegmnxubt","camel","null","stimuli\STATE\USED\Sstoplight2.jpg","","","","","Memory","false","null","","","",""
"","null","html-keyboard-response","143","2.0.0","204130","p3zegmnxubt","camel","null","<div style=""font-size:60px; color: black;"">+</div>","","","","","","","","","","",""
"","null","image-keyboard-response","144","2.0.0","206135","p3zegmnxubt","camel","null","stimuli\STATE\USED\Swaffleiron2.jpg","","","","","Memory","true","null","","","",""
"","null","html-keyboard-response","145","2.0.0","206645","p3zegmnxubt","camel","null","<div style=""font-size:60px; color: black;"">+</div>","","","","","","","","","","",""
"","null","image-keyboard-response","146","2.0.0","208654","p3zegmnxubt","camel","null","stimuli\STATE\USED\Sbarnmailbox2.jpg","","","","","Memory","false","null","","","",""
"","null","html-keyboard-response","147","2.0.0","209165","p3zegmnxubt","camel","null","<div style=""font-size:60px; color: black;"">+</div>","","","","","","","","","","",""
"","null","image-keyboard-response","148","2.0.0","211178","p3zegmnxubt","camel","null","stimuli\STATE\USED\Sdresser2.jpg","","","","","Memory","false","null","","","",""
"","null","html-keyboard-response","149","2.0.0","211687","p3zegmnxubt","camel","null","<div style=""font-size:60px; color: black;"">+</div>","","","","","","","","","","",""
"","null","image-keyboard-response","150","2.0.0","213698","p3zegmnxubt","camel","null","stimuli\STATE\USED\Scontainer2.JPG","","","","","Memory","false","null","","","",""
"","null","html-keyboard-response","151","2.0.0","214207","p3zegmnxubt","camel","null","<div style=""font-size:60px; color: black;"">+</div>","","","","","","","","","","",""
"","null","image-keyboard-response","152","2.0.0","216212","p3zegmnxubt","camel","null","stimuli\EXEMPLAR\USED\Etoykeys2.JPG","","","","","Memory","false","null","","","",""
"","null","html-keyboard-response","153","2.0.0","216723","p3zegmnxubt","camel","null","<div style=""font-size:60px; color: black;"">+</div>","","","","","","","","","","",""
"","null","image-keyboard-response","154","2.0.0","218735","p3zegmnxubt","camel","null","stimuli\EXEMPLAR\USED\Ebicycle1.jpg","","","","","Memory","false","null","","","",""
"","null","html-keyboard-response","155","2.0.0","219245","p3zegmnxubt","camel","null","<div style=""font-size:60px; color: black;"">+</div>","","","","","","","","","","",""
"","null","image-keyboard-response","156","2.0.0","221262","p3zegmnxubt","camel","null","stimuli\EXEMPLAR\USED\Eballoon2.jpg","","","","","Memory","false","null","","","",""
"","null","html-keyboard-response","157","2.0.0","221773","p3zegmnxubt","camel","null","<div style=""font-size:60px; color: black;"">+</div>","","","","","","","","","","",""
"","null","image-keyboard-response","158","2.0.0","223781","p3zegmnxubt","camel","null","stimuli\EXEMPLAR\USED\Eplate2.jpg","","","","","Memory","false","null","","","",""
"","null","html-keyboard-response","159","2.0.0","224293","p3zegmnxubt","camel","null","<div style=""font-size:60px; color: black;"">+</div>","","","","","","","","","","",""
"","null","image-keyboard-response","160","2.0.0","226301","p3zegmnxubt","camel","null","stimuli\EXEMPLAR\USED\Estarfish1.jpg","","","","","Memory","false","null","","","",""
"","null","html-keyboard-response","161","2.0.0","226813","p3zegmnxubt","camel","null","<div style=""font-size:60px; color: black;"">+</div>","","","","","","","","","","",""
"","null","image-keyboard-response","162","2.0.0","228821","p3zegmnxubt","camel","null","stimuli\STATE\USED\Spiggybank1.jpg","","","","","Memory","false","null","","","",""
"","null","html-keyboard-response","163","2.0.0","229332","p3zegmnxubt","camel","null","<div style=""font-size:60px; color: black;"">+</div>","","","","","","","","","","",""
"","null","image-keyboard-response","164","2.0.0","231345","p3zegmnxubt","camel","null","stimuli\EXEMPLAR\USED\Eturtle2.jpg","","","","","Memory","false","null","","","",""
"","null","html-keyboard-response","165","2.0.0","231854","p3zegmnxubt","camel","null","<div style=""font-size:60px; color: black;"">+</div>","","","","","","","","","","",""
"","null","image-keyboard-response","166","2.0.0","233871","p3zegmnxubt","camel","null","stimuli\EXEMPLAR\USED\Eelectricbass2.jpg","","","","","Memory","false","null","","","",""
"","null","html-keyboard-response","167","2.0.0","234380","p3zegmnxubt","camel","null","<div style=""font-size:60px; color: black;"">+</div>","","","","","","","","","","",""
"","null","image-keyboard-response","168","2.0.0","236390","p3zegmnxubt","camel","null","stimuli\EXEMPLAR\USED\Ebonzai1.jpg","","","","","Memory","false","null","","","",""
"","null","html-keyboard-response","169","2.0.0","236898","p3zegmnxubt","camel","null","<div style=""font-size:60px; color: black;"">+</div>","","","","","","","","","","",""
"","null","image-keyboard-response","170","2.0.0","238910","p3zegmnxubt","camel","null","stimuli\STATE\USED\Sdie1.jpg","","","","","Memory","false","null","","","",""
"","null","html-keyboard-response","171","2.0.0","239419","p3zegmnxubt","camel","null","<div style=""font-size:60px; color: black;"">+</div>","","","","","","","","","","",""
"","null","image-keyboard-response","172","2.0.0","241430","p3zegmnxubt","camel","null","stimuli\EXEMPLAR\USED\Erazor1.jpg","","","","","Memory","false","null","","","",""
"","null","html-keyboard-response","173","2.0.0","241938","p3zegmnxubt","camel","null","<div style=""font-size:60px; color: black;"">+</div>","","","","","","","","","","",""
"","603","image-keyboard-response","174","2.0.0","243940","p3zegmnxubt","camel"," ","stimuli\EXEMPLAR\USED\Eelectricbass2.jpg","","","","","Memory","true","true","","","",""
"","null","html-keyboard-response","175","2.0.0","244450","p3zegmnxubt","camel","null","<div style=""font-size:60px; color: green;"">+</div>","","","","","","","","","","",""
"","null","image-keyboard-response","176","2.0.0","246462","p3zegmnxubt","camel","null","stimuli\EXEMPLAR\USED\Emuffin2.jpg","","","","","Memory","false","null","","","",""
"","null","html-keyboard-response","177","2.0.0","246971","p3zegmnxubt","camel","null","<div style=""font-size:60px; color: black;"">+</div>","","","","","","","","","","",""
"","null","image-keyboard-response","178","2.0.0","248985","p3zegmnxubt","camel","null","stimuli\STATE\USED\Spie1.JPG","","","","","Memory","false","null","","","",""
"","null","html-keyboard-response","179","2.0.0","249492","p3zegmnxubt","camel","null","<div style=""font-size:60px; color: black;"">+</div>","","","","","","","","","","",""
"","null","image-keyboard-response","180","2.0.0","251590","p3zegmnxubt","camel","null","stimuli\STATE\USED\Sseats1.jpg","","","","","Memory","false","null","","","",""
"","null","html-keyboard-response","181","2.0.0","252099","p3zegmnxubt","camel","null","<div style=""font-size:60px; color: black;"">+</div>","","","","","","","","","","",""
"","null","image-keyboard-response","182","2.0.0","254104","p3zegmnxubt","camel","null","stimuli\STATE\USED\Sbelt1.jpg","","","","","Memory","false","null","","","",""
"","null","html-keyboard-response","183","2.0.0","254614","p3zegmnxubt","camel","null","<div style=""font-size:60px; color: black;"">+</div>","","","","","","","","","","",""
"","692","image-keyboard-response","184","2.0.0","256644","p3zegmnxubt","camel"," ","stimuli\EXEMPLAR\USED\Emuffin2.jpg","","","","","Memory","true","true","","","",""
"","null","html-keyboard-response","185","2.0.0","257150","p3zegmnxubt","camel","null","<div style=""font-size:60px; color: green;"">+</div>","","","","","","","","","","",""
"","null","image-keyboard-response","186","2.0.0","259160","p3zegmnxubt","camel","null","stimuli\STATE\USED\Sboxwhite1.jpg","","","","","Memory","false","null","","","",""
"","null","html-keyboard-response","187","2.0.0","259671","p3zegmnxubt","camel","null","<div style=""font-size:60px; color: black;"">+</div>","","","","","","","","","","",""
"","null","image-keyboard-response","188","2.0.0","261698","p3zegmnxubt","camel","null","stimuli\STATE\USED\Spumpkinpie2.jpg","","","","","Memory","false","null","","","",""
"","null","html-keyboard-response","189","2.0.0","262207","p3zegmnxubt","camel","null","<div style=""font-size:60px; color: black;"">+</div>","","","","","","","","","","",""
"","null","image-keyboard-response","190","2.0.0","264213","p3zegmnxubt","camel","null","stimuli\STATE\USED\Sbriefcasemetal2.JPG","","","","","Memory","false","null","","","",""
"","null","html-keyboard-response","191","2.0.0","264722","p3zegmnxubt","camel","null","<div style=""font-size:60px; color: black;"">+</div>","","","","","","","","","","",""
"","null","image-keyboard-response","192","2.0.0","266738","p3zegmnxubt","camel","null","stimuli\EXEMPLAR\USED\Eremote2.jpg","","","","","Memory","false","null","","","",""
"","null","html-keyboard-response","193","2.0.0","267246","p3zegmnxubt","camel","null","<div style=""font-size:60px; color: black;"">+</div>","","","","","","","","","","",""
"","780","image-keyboard-response","194","2.0.0","269260","p3zegmnxubt","camel"," ","stimuli\STATE\USED\Sboxwhite1.jpg","","","","","Memory","true","true","","","",""
"","null","html-keyboard-response","195","2.0.0","269784","p3zegmnxubt","camel","null","<div style=""font-size:60px; color: green;"">+</div>","","","","","","","","","","",""
"","null","image-keyboard-response","196","2.0.0","271793","p3zegmnxubt","camel","null","stimuli\EXEMPLAR\USED\Ehelmet1.jpg","","","","","Memory","false","null","","","",""
"","null","html-keyboard-response","197","2.0.0","272298","p3zegmnxubt","camel","null","<div style=""font-size:60px; color: black;"">+</div>","","","","","","","","","","",""
"","null","image-keyboard-response","198","2.0.0","274306","p3zegmnxubt","camel","null","stimuli\STATE\USED\Scooker1.jpg","","","","","Memory","false","null","","","",""
"","null","html-keyboard-response","199","2.0.0","274813","p3zegmnxubt","camel","null","<div style=""font-size:60px; color: black;"">+</div>","","","","","","","","","","",""
"","null","image-keyboard-response","200","2.0.0","276817","p3zegmnxubt","camel","null","stimuli\STATE\USED\Sflask2.jpg","","","","","Memory","false","null","","","",""
"","null","html-keyboard-response","201","2.0.0","277329","p3zegmnxubt","camel","null","<div style=""font-size:60px; color: black;"">+</div>","","","","","","","","","","",""
"","null","image-keyboard-response","202","2.0.0","279335","p3zegmnxubt","camel","null","stimuli\EXEMPLAR\USED\Epliers2.jpg","","","","","Memory","false","null","","","",""
"","null","html-keyboard-response","203","2.0.0","279841","p3zegmnxubt","camel","null","<div style=""font-size:60px; color: black;"">+</div>","","","","","","","","","","",""
"","null","image-keyboard-response","204","2.0.0","281847","p3zegmnxubt","camel","null","stimuli\EXEMPLAR\USED\Etrophy2.jpg","","","","","Memory","false","null","","","",""
"","null","html-keyboard-response","205","2.0.0","282353","p3zegmnxubt","camel","null","<div style=""font-size:60px; color: black;"">+</div>","","","","","","","","","","",""
"","null","image-keyboard-response","206","2.0.0","284370","p3zegmnxubt","camel","null","stimuli\EXEMPLAR\USED\Etoyplane2.jpg","","","","","Memory","false","null","","","",""
"","null","html-keyboard-response","207","2.0.0","284879","p3zegmnxubt","camel","null","<div style=""font-size:60px; color: black;"">+</div>","","","","","","","","","","",""
"","null","image-keyboard-response","208","2.0.0","286895","p3zegmnxubt","camel","null","stimuli\EXEMPLAR\USED\Enozzle2.jpg","","","","","Memory","false","null","","","",""
"","null","html-keyboard-response","209","2.0.0","287406","p3zegmnxubt","camel","null","<div style=""font-size:60px; color: black;"">+</div>","","","","","","","","","","",""
"","1692","html-button-response","210","2.0.0","289099","p3zegmnxubt","camel","0","Are you still there?","","","","","Attention Check","","","","","",""
"","837","image-keyboard-response","211","2.0.0","291108","p3zegmnxubt","camel"," ","stimuli\EXEMPLAR\USED\Epliers2.jpg","","","","","Memory","true","true","","","",""
"","null","html-keyboard-response","212","2.0.0","291622","p3zegmnxubt","camel","null","<div style=""font-size:60px; color: green;"">+</div>","","","","","","","","","","",""
"","null","image-keyboard-response","213","2.0.0","293623","p3zegmnxubt","camel","null","stimuli\STATE\USED\Sbooks1.JPG","","","","","Memory","false","null","","","",""
"","null","html-keyboard-response","214","2.0.0","294147","p3zegmnxubt","camel","null","<div style=""font-size:60px; color: black;"">+</div>","","","","","","","","","","",""
"","null","image-keyboard-response","215","2.0.0","296172","p3zegmnxubt","camel","null","stimuli\EXEMPLAR\USED\Eswimsuit1.jpg","","","","","Memory","false","null","","","",""
"","null","html-keyboard-response","216","2.0.0","296683","p3zegmnxubt","camel","null","<div style=""font-size:60px; color: black;"">+</div>","","","","","","","","","","",""
"","null","image-keyboard-response","217","2.0.0","298686","p3zegmnxubt","camel","null","stimuli\STATE\USED\Sapple2.jpg","","","","","Memory","false","null","","","",""
"","null","html-keyboard-response","218","2.0.0","299194","p3zegmnxubt","camel","null","<div style=""font-size:60px; color: black;"">+</div>","","","","","","","","","","",""
"","null","image-keyboard-response","219","2.0.0","301198","p3zegmnxubt","camel","null","stimuli\STATE\USED\Sgiftbag2.jpg","","","","","Memory","false","null","","","",""
"","null","html-keyboard-response","220","2.0.0","301707","p3zegmnxubt","camel","null","<div style=""font-size:60px; color: black;"">+</div>","","","","","","","","","","",""
"","935","image-keyboard-response","221","2.0.0","303717","p3zegmnxubt","camel"," ","stimuli\STATE\USED\Sbooks1.JPG","","","","","Memory","true","true","","","",""
"","null","html-keyboard-response","222","2.0.0","304229","p3zegmnxubt","camel","null","<div style=""font-size:60px; color: green;"">+</div>","","","","","","","","","","",""
"","null","image-keyboard-response","223","2.0.0","306236","p3zegmnxubt","camel","null","stimuli\EXEMPLAR\USED\Ehoe1.jpg","","","","","Memory","false","null","","","",""
"","null","html-keyboard-response","224","2.0.0","306746","p3zegmnxubt","camel","null","<div style=""font-size:60px; color: black;"">+</div>","","","","","","","","","","",""
"","null","image-keyboard-response","225","2.0.0","308752","p3zegmnxubt","camel","null","stimuli\STATE\USED\Snapkins1.jpg","","","","","Memory","false","null","","","",""
"","null","html-keyboard-response","226","2.0.0","309262","p3zegmnxubt","camel","null","<div style=""font-size:60px; color: black;"">+</div>","","","","","","","","","","",""
"","null","image-keyboard-response","227","2.0.0","311269","p3zegmnxubt","camel","null","stimuli\STATE\USED\Sgrinder2.jpg","","","","","Memory","false","null","","","",""
"","null","html-keyboard-response","228","2.0.0","311777","p3zegmnxubt","camel","null","<div style=""font-size:60px; color: black;"">+</div>","","","","","","","","","","",""
"","null","image-keyboard-response","229","2.0.0","313788","p3zegmnxubt","camel","null","stimuli\STATE\USED\Sschoolbag2.JPG","","","","","Memory","false","null","","","",""
"","null","html-keyboard-response","230","2.0.0","314296","p3zegmnxubt","camel","null","<div style=""font-size:60px; color: black;"">+</div>","","","","","","","","","","",""
"","null","image-keyboard-response","231","2.0.0","316305","p3zegmnxubt","camel","null","stimuli\STATE\USED\Seggplant1.jpg","","","","","Memory","false","null","","","",""
"","null","html-keyboard-response","232","2.0.0","316814","p3zegmnxubt","camel","null","<div style=""font-size:60px; color: black;"">+</div>","","","","","","","","","","",""
"","null","image-keyboard-response","233","2.0.0","318820","p3zegmnxubt","camel","null","stimuli\EXEMPLAR\USED\Erabbit1.jpg","","","","","Memory","false","null","","","",""
"","null","html-keyboard-response","234","2.0.0","319328","p3zegmnxubt","camel","null","<div style=""font-size:60px; color: black;"">+</div>","","","","","","","","","","",""
"","null","image-keyboard-response","235","2.0.0","321340","p3zegmnxubt","camel","null","stimuli\STATE\USED\Sskull1.jpg","","","","","Memory","false","null","","","",""
"","null","html-keyboard-response","236","2.0.0","321849","p3zegmnxubt","camel","null","<div style=""font-size:60px; color: black;"">+</div>","","","","","","","","","","",""
"","null","image-keyboard-response","237","2.0.0","323858","p3zegmnxubt","camel","null","stimuli\STATE\USED\Stiger2.jpg","","","","","Memory","false","null","","","",""
"","null","html-keyboard-response","238","2.0.0","324369","p3zegmnxubt","camel","null","<div style=""font-size:60px; color: black;"">+</div>","","","","","","","","","","",""
"","574","image-keyboard-response","239","2.0.0","326374","p3zegmnxubt","camel"," ","stimuli\STATE\USED\Seggplant1.jpg","","","","","Memory","true","true","","","",""
"","null","html-keyboard-response","240","2.0.0","326880","p3zegmnxubt","camel","null","<div style=""font-size:60px; color: green;"">+</div>","","","","","","","","","","",""
"","null","image-keyboard-response","241","2.0.0","328887","p3zegmnxubt","camel","null","stimuli\EXEMPLAR\USED\Efolder1.jpg","","","","","Memory","false","null","","","",""
"","null","html-keyboard-response","242","2.0.0","329395","p3zegmnxubt","camel","null","<div style=""font-size:60px; color: black;"">+</div>","","","","","","","","","","",""
"","null","image-keyboard-response","243","2.0.0","331402","p3zegmnxubt","camel","null","stimuli\STATE\USED\Srainbowslice1.jpg","","","","","Memory","false","null","","","",""
"","null","html-keyboard-response","244","2.0.0","331911","p3zegmnxubt","camel","null","<div style=""font-size:60px; color: black;"">+</div>","","","","","","","","","","",""
"","null","image-keyboard-response","245","2.0.0","333920","p3zegmnxubt","camel","null","stimuli\EXEMPLAR\USED\Ecamera2.jpg","","","","","Memory","false","null","","","",""
"","null","html-keyboard-response","246","2.0.0","334431","p3zegmnxubt","camel","null","<div style=""font-size:60px; color: black;"">+</div>","","","","","","","","","","",""
"","null","image-keyboard-response","247","2.0.0","336439","p3zegmnxubt","camel","null","stimuli\STATE\USED\Spatiotable2.jpg","","","","","Memory","false","null","","","",""
"","null","html-keyboard-response","248","2.0.0","336948","p3zegmnxubt","camel","null","<div style=""font-size:60px; color: black;"">+</div>","","","","","","","","","","",""
"","null","image-keyboard-response","249","2.0.0","338957","p3zegmnxubt","camel","null","stimuli\STATE\USED\Sclipboard1.jpg","","","","","Memory","false","null","","","",""
"","null","html-keyboard-response","250","2.0.0","339477","p3zegmnxubt","camel","null","<div style=""font-size:60px; color: black;"">+</div>","","","","","","","","","","",""
"","null","image-keyboard-response","251","2.0.0","341490","p3zegmnxubt","camel","null","stimuli\STATE\USED\Sjuiceglass1.JPG","","","","","Memory","false","null","","","",""
"","null","html-keyboard-response","252","2.0.0","341999","p3zegmnxubt","camel","null","<div style=""font-size:60px; color: black;"">+</div>","","","","","","","","","","",""
"","null","image-keyboard-response","253","2.0.0","344001","p3zegmnxubt","camel","null","stimuli\EXEMPLAR\USED\Ecalculator1.jpg","","","","","Memory","false","null","","","",""
"","null","html-keyboard-response","254","2.0.0","344525","p3zegmnxubt","camel","null","<div style=""font-size:60px; color: black;"">+</div>","","","","","","","","","","",""
"","null","image-keyboard-response","255","2.0.0","346560","p3zegmnxubt","camel","null","stimuli\STATE\USED\Sbook2.JPG","","","","","Memory","false","null","","","",""
"","null","html-keyboard-response","256","2.0.0","347068","p3zegmnxubt","camel","null","<div style=""font-size:60px; color: black;"">+</div>","","","","","","","","","","",""
"","662","image-keyboard-response","257","2.0.0","349069","p3zegmnxubt","camel"," ","stimuli\STATE\USED\Sclipboard1.jpg","","","","","Memory","true","true","","","",""
"","null","html-keyboard-response","258","2.0.0","349592","p3zegmnxubt","camel","null","<div style=""font-size:60px; color: green;"">+</div>","","","","","","","","","","",""
"","null","image-keyboard-response","259","2.0.0","351602","p3zegmnxubt","camel","null","stimuli\EXEMPLAR\USED\Emoney1.jpg","","","","","Memory","false","null","","","",""
"","null","html-keyboard-response","260","2.0.0","352109","p3zegmnxubt","camel","null","<div style=""font-size:60px; color: black;"">+</div>","","","","","","","","","","",""
"","null","image-keyboard-response","261","2.0.0","354114","p3zegmnxubt","camel","null","stimuli\STATE\USED\Sscissors2.JPG","","","","","Memory","false","null","","","",""
"","null","html-keyboard-response","262","2.0.0","354620","p3zegmnxubt","camel","null","<div style=""font-size:60px; color: black;"">+</div>","","","","","","","","","","",""
"","null","image-keyboard-response","263","2.0.0","356653","p3zegmnxubt","camel","null","stimuli\EXEMPLAR\USED\Ewheelchair2.jpg","","","","","Memory","false","null","","","",""
"","null","html-keyboard-response","264","2.0.0","357160","p3zegmnxubt","camel","null","<div style=""font-size:60px; color: black;"">+</div>","","","","","","","","","","",""
"","null","image-keyboard-response","265","2.0.0","359164","p3zegmnxubt","camel","null","stimuli\EXEMPLAR\USED\Ecake1.jpg","","","","","Memory","false","null","","","",""
"","null","html-keyboard-response","266","2.0.0","359686","p3zegmnxubt","camel","null","<div style=""font-size:60px; color: black;"">+</div>","","","","","","","","","","",""
"","null","image-keyboard-response","267","2.0.0","361691","p3zegmnxubt","camel","null","stimuli\EXEMPLAR\USED\Emedal1.jpg","","","","","Memory","false","null","","","",""
"","null","html-keyboard-response","268","2.0.0","362199","p3zegmnxubt","camel","null","<div style=""font-size:60px; color: black;"">+</div>","","","","","","","","","","",""
"","597","image-keyboard-response","269","2.0.0","364207","p3zegmnxubt","camel"," ","stimuli\STATE\USED\Sscissors2.JPG","","","","","Memory","true","true","","","",""
"","null","html-keyboard-response","270","2.0.0","364715","p3zegmnxubt","camel","null","<div style=""font-size:60px; color: green;"">+</div>","","","","","","","","","","",""
"","null","image-keyboard-response","271","2.0.0","366745","p3zegmnxubt","camel","null","stimuli\STATE\USED\Shandshake2.JPG","","","","","Memory","false","null","","","",""
"","null","html-keyboard-response","272","2.0.0","367252","p3zegmnxubt","camel","null","<div style=""font-size:60px; color: black;"">+</div>","","","","","","","","","","",""
"","null","image-keyboard-response","273","2.0.0","369257","p3zegmnxubt","camel","null","stimuli\EXEMPLAR\USED\Ehorn2.jpg","","","","","Memory","false","null","","","",""
"","null","html-keyboard-response","274","2.0.0","369810","p3zegmnxubt","camel","null","<div style=""font-size:60px; color: black;"">+</div>","","","","","","","","","","",""
"","null","image-keyboard-response","275","2.0.0","371817","p3zegmnxubt","camel","null","stimuli\STATE\USED\Sseatbelt2.jpg","","","","","Memory","false","null","","","",""
"","null","html-keyboard-response","276","2.0.0","372325","p3zegmnxubt","camel","null","<div style=""font-size:60px; color: black;"">+</div>","","","","","","","","","","",""
"","null","image-keyboard-response","277","2.0.0","374336","p3zegmnxubt","camel","null","stimuli\STATE\USED\Speppers1.jpg","","","","","Memory","false","null","","","",""
"","null","html-keyboard-response","278","2.0.0","374847","p3zegmnxubt","camel","null","<div style=""font-size:60px; color: black;"">+</div>","","","","","","","","","","",""
"","null","image-keyboard-response","279","2.0.0","376867","p3zegmnxubt","camel","null","stimuli\STATE\USED\Sbreadslice2.jpg","","","","","Memory","false","null","","","",""
"","null","html-keyboard-response","280","2.0.0","377376","p3zegmnxubt","camel","null","<div style=""font-size:60px; color: black;"">+</div>","","","","","","","","","","",""
"","null","image-keyboard-response","281","2.0.0","379381","p3zegmnxubt","camel","null","stimuli\STATE\USED\Saccordion2.jpg","","","","","Memory","false","null","","","",""
"","null","html-keyboard-response","282","2.0.0","379891","p3zegmnxubt","camel","null","<div style=""font-size:60px; color: black;"">+</div>","","","","","","","","","","",""
"","null","image-keyboard-response","283","2.0.0","381900","p3zegmnxubt","camel","null","stimuli\EXEMPLAR\USED\Etongs2.jpg","","","","","Memory","false","null","","","",""
"","null","html-keyboard-response","284","2.0.0","382411","p3zegmnxubt","camel","null","<div style=""font-size:60px; color: black;"">+</div>","","","","","","","","","","",""
"","null","image-keyboard-response","285","2.0.0","384413","p3zegmnxubt","camel","null","stimuli\STATE\USED\Slockbox2.jpg","","","","","Memory","false","null","","","",""
"","null","html-keyboard-response","286","2.0.0","384920","p3zegmnxubt","camel","null","<div style=""font-size:60px; color: black;"">+</div>","","","","","","","","","","",""
"","null","image-keyboard-response","287","2.0.0","386938","p3zegmnxubt","camel","null","stimuli\STATE\USED\Saccordionsmall2.JPG","","","","","Memory","false","null","","","",""
"","null","html-keyboard-response","288","2.0.0","387445","p3zegmnxubt","camel","null","<div style=""font-size:60px; color: black;"">+</div>","","","","","","","","","","",""
"","600","image-keyboard-response","289","2.0.0","389462","p3zegmnxubt","camel"," ","stimuli\STATE\USED\Spicnicbasket1.jpg","","","","","Memory","false","false","","","",""
"","null","html-keyboard-response","290","2.0.0","389970","p3zegmnxubt","camel","null","<div style=""font-size:60px; color: red;"">+</div>","","","","","","","","","","",""
"","918","image-keyboard-response","291","2.0.0","391973","p3zegmnxubt","camel"," ","stimuli\EXEMPLAR\USED\Etongs2.jpg","","","","","Memory","true","true","","","",""
"","null","html-keyboard-response","292","2.0.0","392478","p3zegmnxubt","camel","null","<div style=""font-size:60px; color: green;"">+</div>","","","","","","","","","","",""
"","null","image-keyboard-response","293","2.0.0","394488","p3zegmnxubt","camel","null","stimuli\EXEMPLAR\USED\Estapler1.jpg","","","","","Memory","false","null","","","",""
"","null","html-keyboard-response","294","2.0.0","394997","p3zegmnxubt","camel","null","<div style=""font-size:60px; color: black;"">+</div>","","","","","","","","","","",""
"","null","image-keyboard-response","295","2.0.0","397068","p3zegmnxubt","camel","null","stimuli\STATE\USED\Sdoughhands1.jpg","","","","","Memory","false","null","","","",""
"","null","html-keyboard-response","296","2.0.0","397574","p3zegmnxubt","camel","null","<div style=""font-size:60px; color: black;"">+</div>","","","","","","","","","","",""
"","null","image-keyboard-response","297","2.0.0","399585","p3zegmnxubt","camel","null","stimuli\EXEMPLAR\USED\Eguitar1.jpg","","","","","Memory","false","null","","","",""
"","null","html-keyboard-response","298","2.0.0","400097","p3zegmnxubt","camel","null","<div style=""font-size:60px; color: black;"">+</div>","","","","","","","","","","",""
"","null","image-keyboard-response","299","2.0.0","402102","p3zegmnxubt","camel","null","stimuli\EXEMPLAR\USED\Epeppers1.jpg","","","","","Memory","false","null","","","",""
"","null","html-keyboard-response","300","2.0.0","402609","p3zegmnxubt","camel","null","<div style=""font-size:60px; color: black;"">+</div>","","","","","","","","","","",""
"","681","image-keyboard-response","301","2.0.0","404611","p3zegmnxubt","camel"," ","stimuli\EXEMPLAR\USED\Estapler1.jpg","","","","","Memory","true","true","","","",""
"","null","html-keyboard-response","302","2.0.0","405135","p3zegmnxubt","camel","null","<div style=""font-size:60px; color: green;"">+</div>","","","","","","","","","","",""
"","null","image-keyboard-response","303","2.0.0","407150","p3zegmnxubt","camel","null","stimuli\EXEMPLAR\USED\Etoywrench1.jpg","","","","","Memory","false","null","","","",""
"","null","html-keyboard-response","304","2.0.0","407655","p3zegmnxubt","camel","null","<div style=""font-size:60px; color: black;"">+</div>","","","","","","","","","","",""
"","null","image-keyboard-response","305","2.0.0","409658","p3zegmnxubt","camel","null","stimuli\EXEMPLAR\USED\Emicroscope1.jpg","","","","","Memory","false","null","","","",""
"","null","html-keyboard-response","306","2.0.0","410167","p3zegmnxubt","camel","null","<div style=""font-size:60px; color: black;"">+</div>","","","","","","","","","","",""
"","null","image-keyboard-response","307","2.0.0","412173","p3zegmnxubt","camel","null","stimuli\EXEMPLAR\USED\Ehotairballoon1.jpg","","","","","Memory","false","null","","","",""
"","null","html-keyboard-response","308","2.0.0","412681","p3zegmnxubt","camel","null","<div style=""font-size:60px; color: black;"">+</div>","","","","","","","","","","",""
"","null","image-keyboard-response","309","2.0.0","414694","p3zegmnxubt","camel","null","stimuli\EXEMPLAR\USED\Edinosaur2.jpg","","","","","Memory","false","null","","","",""
"","null","html-keyboard-response","310","2.0.0","415205","p3zegmnxubt","camel","null","<div style=""font-size:60px; color: black;"">+</div>","","","","","","","","","","",""
"","null","image-keyboard-response","311","2.0.0","417209","p3zegmnxubt","camel","null","stimuli\EXEMPLAR\USED\Echopsticks2.jpg","","","","","Memory","false","null","","","",""
"","null","html-keyboard-response","312","2.0.0","417720","p3zegmnxubt","camel","null","<div style=""font-size:60px; color: black;"">+</div>","","","","","","","","","","",""
"","1244","html-button-response","313","2.0.0","418963","p3zegmnxubt","camel","0","Are you still there?","","","","","Attention Check","","","","","",""
"","null","image-keyboard-response","314","2.0.0","420981","p3zegmnxubt","camel","null","stimuli\EXEMPLAR\USED\Eglobe2.jpg","","","","","Memory","false","null","","","",""
"","null","html-keyboard-response","315","2.0.0","421488","p3zegmnxubt","camel","null","<div style=""font-size:60px; color: black;"">+</div>","","","","","","","","","","",""
"","null","image-keyboard-response","316","2.0.0","423500","p3zegmnxubt","camel","null","stimuli\EXEMPLAR\USED\Eladder1.jpg","","","","","Memory","false","null","","","",""
"","null","html-keyboard-response","317","2.0.0","424006","p3zegmnxubt","camel","null","<div style=""font-size:60px; color: black;"">+</div>","","","","","","","","","","",""
"","null","image-keyboard-response","318","2.0.0","426023","p3zegmnxubt","camel","null","stimuli\EXEMPLAR\USED\Eremover1.jpg","","","","","Memory","false","null","","","",""
"","null","html-keyboard-response","319","2.0.0","426528","p3zegmnxubt","camel","null","<div style=""font-size:60px; color: black;"">+</div>","","","","","","","","","","",""
"","null","image-keyboard-response","320","2.0.0","428535","p3zegmnxubt","camel","null","stimuli\STATE\USED\Sbrie2.JPG","","","","","Memory","false","null","","","",""
"","null","html-keyboard-response","321","2.0.0","429044","p3zegmnxubt","camel","null","<div style=""font-size:60px; color: black;"">+</div>","","","","","","","","","","",""
"","650","image-keyboard-response","322","2.0.0","431060","p3zegmnxubt","camel"," ","stimuli\EXEMPLAR\USED\Eglobe2.jpg","","","","","Memory","true","true","","","",""
"","null","html-keyboard-response","323","2.0.0","431567","p3zegmnxubt","camel","null","<div style=""font-size:60px; color: green;"">+</div>","","","","","","","","","","",""
"","null","image-keyboard-response","324","2.0.0","433571","p3zegmnxubt","camel","null","stimuli\STATE\USED\Sdishes2.JPG","","","","","Memory","false","null","","","",""
"","null","html-keyboard-response","325","2.0.0","434082","p3zegmnxubt","camel","null","<div style=""font-size:60px; color: black;"">+</div>","","","","","","","","","","",""
"","null","image-keyboard-response","326","2.0.0","436088","p3zegmnxubt","camel","null","stimuli\EXEMPLAR\USED\Ebunny2.jpg","","","","","Memory","false","null","","","",""
"","null","html-keyboard-response","327","2.0.0","436596","p3zegmnxubt","camel","null","<div style=""font-size:60px; color: black;"">+</div>","","","","","","","","","","",""
"","null","image-keyboard-response","328","2.0.0","438601","p3zegmnxubt","camel","null","stimuli\STATE\USED\Scoffeemaker2.JPG","","","","","Memory","false","null","","","",""
"","null","html-keyboard-response","329","2.0.0","439111","p3zegmnxubt","camel","null","<div style=""font-size:60px; color: black;"">+</div>","","","","","","","","","","",""
"","null","image-keyboard-response","330","2.0.0","441125","p3zegmnxubt","camel","null","stimuli\STATE\USED\Sdishwasher1.jpg","","","","","Memory","false","null","","","",""
"","null","html-keyboard-response","331","2.0.0","441635","p3zegmnxubt","camel","null","<div style=""font-size:60px; color: black;"">+</div>","","","","","","","","","","",""
"","null","image-keyboard-response","332","2.0.0","443653","p3zegmnxubt","camel","null","stimuli\STATE\USED\Slaptop1.JPG","","","","","Memory","false","null","","","",""
"","null","html-keyboard-response","333","2.0.0","444160","p3zegmnxubt","camel","null","<div style=""font-size:60px; color: black;"">+</div>","","","","","","","","","","",""
"","null","image-keyboard-response","334","2.0.0","446162","p3zegmnxubt","camel","null","stimuli\EXEMPLAR\USED\Escroll2.jpg","","","","","Memory","false","null","","","",""
"","null","html-keyboard-response","335","2.0.0","446672","p3zegmnxubt","camel","null","<div style=""font-size:60px; color: black;"">+</div>","","","","","","","","","","",""
"","null","image-keyboard-response","336","2.0.0","448682","p3zegmnxubt","camel","null","stimuli\EXEMPLAR\USED\Ebell1.jpg","","","","","Memory","false","null","","","",""
"","null","html-keyboard-response","337","2.0.0","449191","p3zegmnxubt","camel","null","<div style=""font-size:60px; color: black;"">+</div>","","","","","","","","","","",""
"","null","image-keyboard-response","338","2.0.0","451195","p3zegmnxubt","camel","null","stimuli\STATE\USED\Sscales2.jpg","","","","","Memory","false","null","","","",""
"","null","html-keyboard-response","339","2.0.0","451701","p3zegmnxubt","camel","null","<div style=""font-size:60px; color: black;"">+</div>","","","","","","","","","","",""
"","null","image-keyboard-response","340","2.0.0","453707","p3zegmnxubt","camel","null","stimuli\EXEMPLAR\USED\Esuitcase1.jpg","","","","","Memory","false","null","","","",""
"","null","html-keyboard-response","341","2.0.0","454215","p3zegmnxubt","camel","null","<div style=""font-size:60px; color: black;"">+</div>","","","","","","","","","","",""
"","null","image-keyboard-response","342","2.0.0","456232","p3zegmnxubt","camel","null","stimuli\EXEMPLAR\USED\Echeeses1.jpg","","","","","Memory","false","null","","","",""
"","null","html-keyboard-response","343","2.0.0","456737","p3zegmnxubt","camel","null","<div style=""font-size:60px; color: black;"">+</div>","","","","","","","","","","",""
"","null","image-keyboard-response","344","2.0.0","458752","p3zegmnxubt","camel","null","stimuli\EXEMPLAR\USED\Efishbowl2.jpg","","","","","Memory","false","null","","","",""
"","null","html-keyboard-response","345","2.0.0","459260","p3zegmnxubt","camel","null","<div style=""font-size:60px; color: black;"">+</div>","","","","","","","","","","",""
"","null","image-keyboard-response","346","2.0.0","461268","p3zegmnxubt","camel","null","stimuli\EXEMPLAR\USED\Egame2.jpg","","","","","Memory","false","null","","","",""
"","null","html-keyboard-response","347","2.0.0","461777","p3zegmnxubt","camel","null","<div style=""font-size:60px; color: black;"">+</div>","","","","","","","","","","",""
"","5655","html-keyboard-response","348","2.0.0","467431","p3zegmnxubt","camel"," ","
          <p>In the next part of this experiment, you will see 2 images. Please select the image that you recall from the image stream.</p>
          <p>You will also rate your confidence for each image you recall.</p>
          <p>Press any key to start.</p>
        ","","","","","","","","","","",""
"","1469","html-button-response","349","2.0.0","468902","p3zegmnxubt","camel","1","Which of these items did you see before?","","","","","Test","","true","[""stimuli\\STATE\\USED\\Sstoplight1.jpg"",""stimuli\\STATE\\USED\\Sstoplight2.jpg""]","stimuli\STATE\USED\Sstoplight2.jpg","stimuli\STATE\USED\Sstoplight2.jpg",""
"","3419","image-slider-response","350","2.0.0","472324","p3zegmnxubt","camel","5","stimuli\STATE\USED\Sstoplight2.jpg","","","","","","","","","","","3"
"","1775","html-button-response","351","2.0.0","474100","p3zegmnxubt","camel","1","Which of these items did you see before?","","","","","Test","","true","[""stimuli\\STATE\\USED\\Slaptop2.JPG"",""stimuli\\STATE\\USED\\Slaptop1.JPG""]","stimuli\STATE\USED\Slaptop1.JPG","stimuli\STATE\USED\Slaptop1.JPG",""
"","1814","image-slider-response","352","2.0.0","475918","p3zegmnxubt","camel","5","stimuli\STATE\USED\Slaptop1.JPG","","","","","","","","","","","3"
"","804","html-button-response","353","2.0.0","476723","p3zegmnxubt","camel","1","Which of these items did you see before?","","","","","Test","","true","[""stimuli\\STATE\\USED\\Sredcabbage1.jpg"",""stimuli\\STATE\\USED\\Sredcabbage2.jpg""]","stimuli\STATE\USED\Sredcabbage2.jpg","stimuli\STATE\USED\Sredcabbage2.jpg",""
"","1661","image-slider-response","354","2.0.0","478386","p3zegmnxubt","camel","5","stimuli\STATE\USED\Sredcabbage2.jpg","","","","","","","","","","","3"
"","4041","html-button-response","355","2.0.0","482429","p3zegmnxubt","camel","0","Which of these items did you see before?","","","","","Test","","true","[""stimuli\\EXEMPLAR\\USED\\Eremote2.jpg"",""stimuli\\EXEMPLAR\\USED\\Eremote1.jpg""]","stimuli\EXEMPLAR\USED\Eremote2.jpg","stimuli\EXEMPLAR\USED\Eremote2.jpg",""
"","2059","image-slider-response","356","2.0.0","484489","p3zegmnxubt","camel","2","stimuli\EXEMPLAR\USED\Eremote2.jpg","","","","","","","","","","","3"
"","3955","html-button-response","357","2.0.0","488447","p3zegmnxubt","camel","1","Which of these items did you see before?","","","","","Test","","true","[""stimuli\\STATE\\USED\\Shairbrush1.jpg"",""stimuli\\STATE\\USED\\Shairbrush2.jpg""]","stimuli\STATE\USED\Shairbrush2.jpg","stimuli\STATE\USED\Shairbrush2.jpg",""
"","1905","image-slider-response","358","2.0.0","490354","p3zegmnxubt","camel","1","stimuli\STATE\USED\Shairbrush2.jpg","","","","","","","","","","","3"
"","1302","html-button-response","359","2.0.0","491658","p3zegmnxubt","camel","1","Which of these items did you see before?","","","","","Test","","true","[""stimuli\\STATE\\USED\\Sdoughhands2.jpg"",""stimuli\\STATE\\USED\\Sdoughhands1.jpg""]","stimuli\STATE\USED\Sdoughhands1.jpg","stimuli\STATE\USED\Sdoughhands1.jpg",""
"","1677","image-slider-response","360","2.0.0","493337","p3zegmnxubt","camel","5","stimuli\STATE\USED\Sdoughhands1.jpg","","","","","","","","","","","3"
"","1148","html-button-response","361","2.0.0","494485","p3zegmnxubt","camel","1","Which of these items did you see before?","","","","","Test","","true","[""stimuli\\EXEMPLAR\\USED\\Etrophy1.jpg"",""stimuli\\EXEMPLAR\\USED\\Etrophy2.jpg""]","stimuli\EXEMPLAR\USED\Etrophy2.jpg","stimuli\EXEMPLAR\USED\Etrophy2.jpg",""
"","1538","image-slider-response","362","2.0.0","496025","p3zegmnxubt","camel","5","stimuli\EXEMPLAR\USED\Etrophy2.jpg","","","","","","","","","","","3"
"","1200","html-button-response","363","2.0.0","497227","p3zegmnxubt","camel","1","Which of these items did you see before?","","","","","Test","","true","[""stimuli\\EXEMPLAR\\USED\\Esantahat2.jpg"",""stimuli\\EXEMPLAR\\USED\\Esantahat1.jpg""]","stimuli\EXEMPLAR\USED\Esantahat1.jpg","stimuli\EXEMPLAR\USED\Esantahat1.jpg",""
"","1666","image-slider-response","364","2.0.0","498895","p3zegmnxubt","camel","4","stimuli\EXEMPLAR\USED\Esantahat1.jpg","","","","","","","","","","","3"
"","3966","html-button-response","365","2.0.0","502862","p3zegmnxubt","camel","1","Which of these items did you see before?","","","","","Test","","true","[""stimuli\\STATE\\USED\\Sbabytoy1.JPG"",""stimuli\\STATE\\USED\\Sbabytoy2.JPG""]","stimuli\STATE\USED\Sbabytoy2.JPG","stimuli\STATE\USED\Sbabytoy2.JPG",""
"","1815","image-slider-response","366","2.0.0","504679","p3zegmnxubt","camel","2","stimuli\STATE\USED\Sbabytoy2.JPG","","","","","","","","","","","3"
"","1260","html-button-response","367","2.0.0","505941","p3zegmnxubt","camel","0","Which of these items did you see before?","","","","","Test","","true","[""stimuli\\STATE\\USED\\Sgrinder2.jpg"",""stimuli\\STATE\\USED\\Sgrinder1.jpg""]","stimuli\STATE\USED\Sgrinder2.jpg","stimuli\STATE\USED\Sgrinder2.jpg",""
"","1572","image-slider-response","368","2.0.0","507514","p3zegmnxubt","camel","5","stimuli\STATE\USED\Sgrinder2.jpg","","","","","","","","","","","3"
"","1758","html-button-response","369","2.0.0","509275","p3zegmnxubt","camel","0","Which of these items did you see before?","","","","","Test","","true","[""stimuli\\EXEMPLAR\\USED\\Egame2.jpg"",""stimuli\\EXEMPLAR\\USED\\Egame1.jpg""]","stimuli\EXEMPLAR\USED\Egame2.jpg","stimuli\EXEMPLAR\USED\Egame2.jpg",""
"","1636","image-slider-response","370","2.0.0","510913","p3zegmnxubt","camel","2","stimuli\EXEMPLAR\USED\Egame2.jpg","","","","","","","","","","","3"
"","5149","html-button-response","371","2.0.0","516062","p3zegmnxubt","camel","1","Which of these items did you see before?","","","","","Test","","false","[""stimuli\\EXEMPLAR\\USED\\Etoyhand2.jpg"",""stimuli\\EXEMPLAR\\USED\\Etoyhand1.jpg""]","stimuli\EXEMPLAR\USED\Etoyhand2.jpg","stimuli\EXEMPLAR\USED\Etoyhand1.jpg",""
"","1709","image-slider-response","372","2.0.0","517773","p3zegmnxubt","camel","2","stimuli\EXEMPLAR\USED\Etoyhand1.jpg","","","","","","","","","","","3"
"","1922","html-button-response","373","2.0.0","519697","p3zegmnxubt","camel","1","Which of these items did you see before?","","","","","Test","","true","[""stimuli\\STATE\\USED\\Spie2.JPG"",""stimuli\\STATE\\USED\\Spie1.JPG""]","stimuli\STATE\USED\Spie1.JPG","stimuli\STATE\USED\Spie1.JPG",""
"","2011","image-slider-response","374","2.0.0","521709","p3zegmnxubt","camel","3","stimuli\STATE\USED\Spie1.JPG","","","","","","","","","","","3"
"","1417","html-button-response","375","2.0.0","523128","p3zegmnxubt","camel","1","Which of these items did you see before?","","","","","Test","","true","[""stimuli\\EXEMPLAR\\USED\\Eguitar2.jpg"",""stimuli\\EXEMPLAR\\USED\\Eguitar1.jpg""]","stimuli\EXEMPLAR\USED\Eguitar1.jpg","stimuli\EXEMPLAR\USED\Eguitar1.jpg",""
"","1481","image-slider-response","376","2.0.0","524610","p3zegmnxubt","camel","1","stimuli\EXEMPLAR\USED\Eguitar1.jpg","","","","","","","","","","","3"
"","886","html-button-response","377","2.0.0","525498","p3zegmnxubt","camel","1","Which of these items did you see before?","","","","","Test","","true","[""stimuli\\STATE\\USED\\Spolarbear2.jpg"",""stimuli\\STATE\\USED\\Spolarbear1.jpg""]","stimuli\STATE\USED\Spolarbear1.jpg","stimuli\STATE\USED\Spolarbear1.jpg",""
"","1750","image-slider-response","378","2.0.0","527250","p3zegmnxubt","camel","5","stimuli\STATE\USED\Spolarbear1.jpg","","","","","","","","","","","3"
"","2246","html-button-response","379","2.0.0","529499","p3zegmnxubt","camel","0","Which of these items did you see before?","","","","","Test","","true","[""stimuli\\STATE\\USED\\Sdishes2.JPG"",""stimuli\\STATE\\USED\\Sdishes1.JPG""]","stimuli\STATE\USED\Sdishes2.JPG","stimuli\STATE\USED\Sdishes2.JPG",""
"","2411","image-slider-response","380","2.0.0","531911","p3zegmnxubt","camel","2","stimuli\STATE\USED\Sdishes2.JPG","","","","","","","","","","","3"
"","1236","html-button-response","381","2.0.0","533150","p3zegmnxubt","camel","1","Which of these items did you see before?","","","","","Test","","true","[""stimuli\\EXEMPLAR\\USED\\Ekayak2.jpg"",""stimuli\\EXEMPLAR\\USED\\Ekayak1.jpg""]","stimuli\EXEMPLAR\USED\Ekayak1.jpg","stimuli\EXEMPLAR\USED\Ekayak1.jpg",""
"","1447","image-slider-response","382","2.0.0","534599","p3zegmnxubt","camel","4","stimuli\EXEMPLAR\USED\Ekayak1.jpg","","","","","","","","","","","3"
"","1003","html-button-response","383","2.0.0","535603","p3zegmnxubt","camel","0","Which of these items did you see before?","","","","","Test","","true","[""stimuli\\STATE\\USED\\Sseats1.jpg"",""stimuli\\STATE\\USED\\Sseats2.jpg""]","stimuli\STATE\USED\Sseats1.jpg","stimuli\STATE\USED\Sseats1.jpg",""
"","1587","image-slider-response","384","2.0.0","537192","p3zegmnxubt","camel","5","stimuli\STATE\USED\Sseats1.jpg","","","","","","","","","","","3"
"","863","html-button-response","385","2.0.0","538056","p3zegmnxubt","camel","0","Which of these items did you see before?","","","","","Test","","true","[""stimuli\\EXEMPLAR\\USED\\Eballoon2.jpg"",""stimuli\\EXEMPLAR\\USED\\Eballoon1.jpg""]","stimuli\EXEMPLAR\USED\Eballoon2.jpg","stimuli\EXEMPLAR\USED\Eballoon2.jpg",""
"","2173","image-slider-response","386","2.0.0","540231","p3zegmnxubt","camel","5","stimuli\EXEMPLAR\USED\Eballoon2.jpg","","","","","","","","","","","3"
"","3437","html-button-response","387","2.0.0","543669","p3zegmnxubt","camel","1","Which of these items did you see before?","","","","","Test","","true","[""stimuli\\EXEMPLAR\\USED\\Ebread2.jpg"",""stimuli\\EXEMPLAR\\USED\\Ebread1.jpg""]","stimuli\EXEMPLAR\USED\Ebread1.jpg","stimuli\EXEMPLAR\USED\Ebread1.jpg",""
"","1515","image-slider-response","388","2.0.0","545185","p3zegmnxubt","camel","2","stimuli\EXEMPLAR\USED\Ebread1.jpg","","","","","","","","","","","3"
"","1970","html-button-response","389","2.0.0","547158","p3zegmnxubt","camel","1","Which of these items did you see before?","","","","","Test","","true","[""stimuli\\EXEMPLAR\\USED\\Econe2.jpg"",""stimuli\\EXEMPLAR\\USED\\Econe1.jpg""]","stimuli\EXEMPLAR\USED\Econe1.jpg","stimuli\EXEMPLAR\USED\Econe1.jpg",""
"","4676","image-slider-response","390","2.0.0","551836","p3zegmnxubt","camel","4","stimuli\EXEMPLAR\USED\Econe1.jpg","","","","","","","","","","","3"
"","1562","html-button-response","391","2.0.0","553399","p3zegmnxubt","camel","1","Which of these items did you see before?","","","","","Test","","true","[""stimuli\\EXEMPLAR\\USED\\Efishbowl1.jpg"",""stimuli\\EXEMPLAR\\USED\\Efishbowl2.jpg""]","stimuli\EXEMPLAR\USED\Efishbowl2.jpg","stimuli\EXEMPLAR\USED\Efishbowl2.jpg",""
"","1571","image-slider-response","392","2.0.0","554973","p3zegmnxubt","camel","5","stimuli\EXEMPLAR\USED\Efishbowl2.jpg","","","","","","","","","","","3"
"","1710","html-button-response","393","2.0.0","556684","p3zegmnxubt","camel","0","Which of these items did you see before?","","","","","Test","","true","[""stimuli\\EXEMPLAR\\USED\\Ecamera2.jpg"",""stimuli\\EXEMPLAR\\USED\\Ecamera1.jpg""]","stimuli\EXEMPLAR\USED\Ecamera2.jpg","stimuli\EXEMPLAR\USED\Ecamera2.jpg",""
"","1627","image-slider-response","394","2.0.0","558313","p3zegmnxubt","camel","4","stimuli\EXEMPLAR\USED\Ecamera2.jpg","","","","","","","","","","","3"
"","1489","html-button-response","395","2.0.0","559805","p3zegmnxubt","camel","1","Which of these items did you see before?","","","","","Test","","true","[""stimuli\\STATE\\USED\\Swaffleiron1.jpg"",""stimuli\\STATE\\USED\\Swaffleiron2.jpg""]","stimuli\STATE\USED\Swaffleiron2.jpg","stimuli\STATE\USED\Swaffleiron2.jpg",""
"","3518","image-slider-response","396","2.0.0","563324","p3zegmnxubt","camel","3","stimuli\STATE\USED\Swaffleiron2.jpg","","","","","","","","","","","3"
"","2165","html-button-response","397","2.0.0","565492","p3zegmnxubt","camel","1","Which of these items did you see before?","","","","","Test","","false","[""stimuli\\EXEMPLAR\\USED\\Emitt2.jpg"",""stimuli\\EXEMPLAR\\USED\\Emitt1.jpg""]","stimuli\EXEMPLAR\USED\Emitt2.jpg","stimuli\EXEMPLAR\USED\Emitt1.jpg",""
"","1824","image-slider-response","398","2.0.0","567318","p3zegmnxubt","camel","2","stimuli\EXEMPLAR\USED\Emitt1.jpg","","","","","","","","","","","3"
"","7762","html-button-response","399","2.0.0","575083","p3zegmnxubt","camel","1","Which of these items did you see before?","","","","","Test","","true","[""stimuli\\STATE\\USED\\Sdishwasher2.jpg"",""stimuli\\STATE\\USED\\Sdishwasher1.jpg""]","stimuli\STATE\USED\Sdishwasher1.jpg","stimuli\STATE\USED\Sdishwasher1.jpg",""
"","1578","image-slider-response","400","2.0.0","576662","p3zegmnxubt","camel","2","stimuli\STATE\USED\Sdishwasher1.jpg","","","","","","","","","","","3"
"","1843","html-button-response","401","2.0.0","578505","p3zegmnxubt","camel","0","Which of these items did you see before?","","","","","Test","","true","[""stimuli\\EXEMPLAR\\USED\\Eicecream2.jpg"",""stimuli\\EXEMPLAR\\USED\\Eicecream1.jpg""]","stimuli\EXEMPLAR\USED\Eicecream2.jpg","stimuli\EXEMPLAR\USED\Eicecream2.jpg",""
"","2482","image-slider-response","402","2.0.0","580991","p3zegmnxubt","camel","2","stimuli\EXEMPLAR\USED\Eicecream2.jpg","","","","","","","","","","","3"
"","1774","html-button-response","403","2.0.0","582767","p3zegmnxubt","camel","0","Which of these items did you see before?","","","","","Test","","true","[""stimuli\\STATE\\USED\\Stiger2.jpg"",""stimuli\\STATE\\USED\\Stiger1.jpg""]","stimuli\STATE\USED\Stiger2.jpg","stimuli\STATE\USED\Stiger2.jpg",""
"","2467","image-slider-response","404","2.0.0","585236","p3zegmnxubt","camel","4","stimuli\STATE\USED\Stiger2.jpg","","","","","","","","","","","3"
"","842","html-button-response","405","2.0.0","586079","p3zegmnxubt","camel","0","Which of these items did you see before?","","","","","Test","","true","[""stimuli\\EXEMPLAR\\USED\\Estarfish1.jpg"",""stimuli\\EXEMPLAR\\USED\\Estarfish2.jpg""]","stimuli\EXEMPLAR\USED\Estarfish1.jpg","stimuli\EXEMPLAR\USED\Estarfish1.jpg",""
"","1550","image-slider-response","406","2.0.0","587632","p3zegmnxubt","camel","5","stimuli\EXEMPLAR\USED\Estarfish1.jpg","","","","","","","","","","","3"
"","4162","html-button-response","407","2.0.0","591796","p3zegmnxubt","camel","1","Which of these items did you see before?","","","","","Test","","true","[""stimuli\\STATE\\USED\\Spumpkinpie1.jpg"",""stimuli\\STATE\\USED\\Spumpkinpie2.jpg""]","stimuli\STATE\USED\Spumpkinpie2.jpg","stimuli\STATE\USED\Spumpkinpie2.jpg",""
"","1618","image-slider-response","408","2.0.0","593417","p3zegmnxubt","camel","2","stimuli\STATE\USED\Spumpkinpie2.jpg","","","","","","","","","","","3"
"","1480","html-button-response","409","2.0.0","594899","p3zegmnxubt","camel","0","Which of these items did you see before?","","","","","Test","","true","[""stimuli\\STATE\\USED\\Sbook2.JPG"",""stimuli\\STATE\\USED\\Sbook1.JPG""]","stimuli\STATE\USED\Sbook2.JPG","stimuli\STATE\USED\Sbook2.JPG",""
"","1784","image-slider-response","410","2.0.0","596684","p3zegmnxubt","camel","4","stimuli\STATE\USED\Sbook2.JPG","","","","","","","","","","","3"
"","5433","html-button-response","411","2.0.0","602120","p3zegmnxubt","camel","1","Which of these items did you see before?","","","","","Test","","false","[""stimuli\\EXEMPLAR\\USED\\Eholepunch2.jpg"",""stimuli\\EXEMPLAR\\USED\\Eholepunch1.jpg""]","stimuli\EXEMPLAR\USED\Eholepunch2.jpg","stimuli\EXEMPLAR\USED\Eholepunch1.jpg",""
"","1791","image-slider-response","412","2.0.0","603912","p3zegmnxubt","camel","2","stimuli\EXEMPLAR\USED\Eholepunch1.jpg","","","","","","","","","","","3"
"","2337","html-button-response","413","2.0.0","606251","p3zegmnxubt","camel","0","Which of these items did you see before?","","","","","Test","","false","[""stimuli\\EXEMPLAR\\USED\\Emicroscope2.jpg"",""stimuli\\EXEMPLAR\\USED\\Emicroscope1.jpg""]","stimuli\EXEMPLAR\USED\Emicroscope1.jpg","stimuli\EXEMPLAR\USED\Emicroscope2.jpg",""
"","2018","image-slider-response","414","2.0.0","608271","p3zegmnxubt","camel","2","stimuli\EXEMPLAR\USED\Emicroscope2.jpg","","","","","","","","","","","3"
"","1856","html-button-response","415","2.0.0","610129","p3zegmnxubt","camel","1","Which of these items did you see before?","","","","","Test","","true","[""stimuli\\EXEMPLAR\\USED\\Emedal2.jpg"",""stimuli\\EXEMPLAR\\USED\\Emedal1.jpg""]","stimuli\EXEMPLAR\USED\Emedal1.jpg","stimuli\EXEMPLAR\USED\Emedal1.jpg",""
"","1694","image-slider-response","416","2.0.0","611823","p3zegmnxubt","camel","4","stimuli\EXEMPLAR\USED\Emedal1.jpg","","","","","","","","","","","3"
"","1628","html-button-response","417","2.0.0","613453","p3zegmnxubt","camel","0","Which of these items did you see before?","","","","","Test","","true","[""stimuli\\EXEMPLAR\\USED\\Ehoe1.jpg"",""stimuli\\EXEMPLAR\\USED\\Ehoe2.jpg""]","stimuli\EXEMPLAR\USED\Ehoe1.jpg","stimuli\EXEMPLAR\USED\Ehoe1.jpg",""
"","2166","image-slider-response","418","2.0.0","615620","p3zegmnxubt","camel","4","stimuli\EXEMPLAR\USED\Ehoe1.jpg","","","","","","","","","","","3"
"","2239","html-button-response","419","2.0.0","617860","p3zegmnxubt","camel","1","Which of these items did you see before?","","","","","Test","","true","[""stimuli\\EXEMPLAR\\USED\\Ebell2.jpg"",""stimuli\\EXEMPLAR\\USED\\Ebell1.jpg""]","stimuli\EXEMPLAR\USED\Ebell1.jpg","stimuli\EXEMPLAR\USED\Ebell1.jpg",""
"","1587","image-slider-response","420","2.0.0","619450","p3zegmnxubt","camel","1","stimuli\EXEMPLAR\USED\Ebell1.jpg","","","","","","","","","","","3"
"","1529","html-button-response","421","2.0.0","620981","p3zegmnxubt","camel","1","Which of these items did you see before?","","","","","Test","","true","[""stimuli\\STATE\\USED\\Spatiotable1.jpg"",""stimuli\\STATE\\USED\\Spatiotable2.jpg""]","stimuli\STATE\USED\Spatiotable2.jpg","stimuli\STATE\USED\Spatiotable2.jpg",""
"","1417","image-slider-response","422","2.0.0","622400","p3zegmnxubt","camel","4","stimuli\STATE\USED\Spatiotable2.jpg","","","","","","","","","","","3"
"","3934","html-button-response","423","2.0.0","626335","p3zegmnxubt","camel","0","Which of these items did you see before?","","","","","Test","","false","[""stimuli\\STATE\\USED\\Sapplesgreenbasket1.jpg"",""stimuli\\STATE\\USED\\Sapplesgreenbasket2.jpg""]","stimuli\STATE\USED\Sapplesgreenbasket2.jpg","stimuli\STATE\USED\Sapplesgreenbasket1.jpg",""
"","1717","image-slider-response","424","2.0.0","628054","p3zegmnxubt","camel","2","stimuli\STATE\USED\Sapplesgreenbasket1.jpg","","","","","","","","","","","3"
"","1922","html-button-response","425","2.0.0","629977","p3zegmnxubt","camel","0","Which of these items did you see before?","","","","","Test","","true","[""stimuli\\EXEMPLAR\\USED\\Ebicycle1.jpg"",""stimuli\\EXEMPLAR\\USED\\Ebicycle2.jpg""]","stimuli\EXEMPLAR\USED\Ebicycle1.jpg","stimuli\EXEMPLAR\USED\Ebicycle1.jpg",""
"","1489","image-slider-response","426","2.0.0","631468","p3zegmnxubt","camel","1","stimuli\EXEMPLAR\USED\Ebicycle1.jpg","","","","","","","","","","","3"
"","879","html-button-response","427","2.0.0","632347","p3zegmnxubt","camel","0","Which of these items did you see before?","","","","","Test","","true","[""stimuli\\STATE\\USED\\Sbreadslice2.jpg"",""stimuli\\STATE\\USED\\Sbreadslice1.jpg""]","stimuli\STATE\USED\Sbreadslice2.jpg","stimuli\STATE\USED\Sbreadslice2.jpg",""
"","1537","image-slider-response","428","2.0.0","633888","p3zegmnxubt","camel","5","stimuli\STATE\USED\Sbreadslice2.jpg","","","","","","","","","","","3"
"","862","html-button-response","429","2.0.0","634752","p3zegmnxubt","camel","1","Which of these items did you see before?","","","","","Test","","true","[""stimuli\\EXEMPLAR\\USED\\Epotatochips2.jpg"",""stimuli\\EXEMPLAR\\USED\\Epotatochips1.jpg""]","stimuli\EXEMPLAR\USED\Epotatochips1.jpg","stimuli\EXEMPLAR\USED\Epotatochips1.jpg",""
"","1725","image-slider-response","430","2.0.0","636479","p3zegmnxubt","camel","5","stimuli\EXEMPLAR\USED\Epotatochips1.jpg","","","","","","","","","","","3"
"","1659","html-button-response","431","2.0.0","638140","p3zegmnxubt","camel","1","Which of these items did you see before?","","","","","Test","","true","[""stimuli\\STATE\\USED\\Sbox2.jpg"",""stimuli\\STATE\\USED\\Sbox1.jpg""]","stimuli\STATE\USED\Sbox1.jpg","stimuli\STATE\USED\Sbox1.jpg",""
"","1521","image-slider-response","432","2.0.0","639664","p3zegmnxubt","camel","4","stimuli\STATE\USED\Sbox1.jpg","","","","","","","","","","","3"
"","2517","html-button-response","433","2.0.0","642182","p3zegmnxubt","camel","0","Which of these items did you see before?","","","","","Test","","true","[""stimuli\\STATE\\USED\\Shandmirror2.jpg"",""stimuli\\STATE\\USED\\Shandmirror1.jpg""]","stimuli\STATE\USED\Shandmirror2.jpg","stimuli\STATE\USED\Shandmirror2.jpg",""
"","1456","image-slider-response","434","2.0.0","643640","p3zegmnxubt","camel","2","stimuli\STATE\USED\Shandmirror2.jpg","","","","","","","","","","","3"
"","747","html-button-response","435","2.0.0","644390","p3zegmnxubt","camel","0","Which of these items did you see before?","","","","","Test","","true","[""stimuli\\EXEMPLAR\\USED\\Eelectricbass2.jpg"",""stimuli\\EXEMPLAR\\USED\\Eelectricbass1.jpg""]","stimuli\EXEMPLAR\USED\Eelectricbass2.jpg","stimuli\EXEMPLAR\USED\Eelectricbass2.jpg",""
"","1546","image-slider-response","436","2.0.0","645938","p3zegmnxubt","camel","5","stimuli\EXEMPLAR\USED\Eelectricbass2.jpg","","","","","","","","","","","3"
"","1945","html-button-response","437","2.0.0","647885","p3zegmnxubt","camel","0","Which of these items did you see before?","","","","","Test","","true","[""stimuli\\EXEMPLAR\\USED\\Esuitcase1.jpg"",""stimuli\\EXEMPLAR\\USED\\Esuitcase2.jpg""]","stimuli\EXEMPLAR\USED\Esuitcase1.jpg","stimuli\EXEMPLAR\USED\Esuitcase1.jpg",""
"","1545","image-slider-response","438","2.0.0","649433","p3zegmnxubt","camel","5","stimuli\EXEMPLAR\USED\Esuitcase1.jpg","","","","","","","","","","","3"
"","822","html-button-response","439","2.0.0","650257","p3zegmnxubt","camel","0","Which of these items did you see before?","","","","","Test","","true","[""stimuli\\EXEMPLAR\\USED\\Eplate2.jpg"",""stimuli\\EXEMPLAR\\USED\\Eplate1.jpg""]","stimuli\EXEMPLAR\USED\Eplate2.jpg","stimuli\EXEMPLAR\USED\Eplate2.jpg",""
"","1504","image-slider-response","440","2.0.0","651764","p3zegmnxubt","camel","5","stimuli\EXEMPLAR\USED\Eplate2.jpg","","","","","","","","","","","3"
"","724","html-button-response","441","2.0.0","652488","p3zegmnxubt","camel","0","Which of these items did you see before?","","","","","Test","","true","[""stimuli\\EXEMPLAR\\USED\\Etrain2.jpg"",""stimuli\\EXEMPLAR\\USED\\Etrain1.jpg""]","stimuli\EXEMPLAR\USED\Etrain2.jpg","stimuli\EXEMPLAR\USED\Etrain2.jpg",""
"","1538","image-slider-response","442","2.0.0","654029","p3zegmnxubt","camel","5","stimuli\EXEMPLAR\USED\Etrain2.jpg","","","","","","","","","","","3"
"","1065","html-button-response","443","2.0.0","655095","p3zegmnxubt","camel","0","Which of these items did you see before?","","","","","Test","","true","[""stimuli\\STATE\\USED\\Sclipboard1.jpg"",""stimuli\\STATE\\USED\\Sclipboard2.jpg""]","stimuli\STATE\USED\Sclipboard1.jpg","stimuli\STATE\USED\Sclipboard1.jpg",""
"","1425","image-slider-response","444","2.0.0","656522","p3zegmnxubt","camel","5","stimuli\STATE\USED\Sclipboard1.jpg","","","","","","","","","","","3"
"","10630","html-button-response","445","2.0.0","667154","p3zegmnxubt","camel","0","Which of these items did you see before?","","","","","Test","","false","[""stimuli\\STATE\\USED\\Snapkins2.jpg"",""stimuli\\STATE\\USED\\Snapkins1.jpg""]","stimuli\STATE\USED\Snapkins1.jpg","stimuli\STATE\USED\Snapkins2.jpg",""
"","1514","image-slider-response","446","2.0.0","668669","p3zegmnxubt","camel","2","stimuli\STATE\USED\Snapkins2.jpg","","","","","","","","","","","3"
"","1139","html-button-response","447","2.0.0","669810","p3zegmnxubt","camel","0","Which of these items did you see before?","","","","","Test","","true","[""stimuli\\STATE\\USED\\Sbureau2.JPG"",""stimuli\\STATE\\USED\\Sbureau1.JPG""]","stimuli\STATE\USED\Sbureau2.JPG","stimuli\STATE\USED\Sbureau2.JPG",""
"","1668","image-slider-response","448","2.0.0","671480","p3zegmnxubt","camel","4","stimuli\STATE\USED\Sbureau2.JPG","","","","","","","","","","","3"
"","70107","survey-text","449","2.0.0","741595","p3zegmnxubt","camel","{""experiment_purpose"":""I think items you saw repeated you would probably say you have a better recollection for."",""Q1"":""Certain positions, certain facets pop out (i.e. a color, pointed lines or shapes)."",""technical_issues"":""No.""}","","","","","","","","","","","",""
