"success","rt","trial_type","trial_index","plugin_version","time_elapsed","random_id","participant","response","stimulus","timeout","failed_images","failed_audio","failed_video","trial_phase","repeated","correct","choice_images","correct_image","choice","slider_start"
"true","1148","fullscreen","0","2.0.0","2154","p48hzab1ry2","panda","","","","","","","","","","","","",""
"","2782","survey-text","1","2.0.0","4941","p48hzab1ry2","panda","{""participant_id"":""panda""}","","","","","","","","","","","",""
"","1526","html-keyboard-response","2","2.0.0","6468","p48hzab1ry2","panda","Enter","<p>Welcome to the Massive Memory Experiment. Press any key to move on. </p>","","","","","","","","","","",""
"","3292","html-keyboard-response","3","2.0.0","9761","p48hzab1ry2","panda","Enter","
      <div style='width:900px;margin: auto;'><p>In the first section you will see a stream of images, with fixation crosses in between each image.</p>
      <p>Each image will remain on screen for 2 seconds. Your job is to detect images that you have seen before within the experiment. Whenever you see an image that you have seen previously <b>at any point in the stream of images</b>, press the spacebar.</p>
      <p>We will let you know if you have correctly or falsely clicked the spacebar on an image by changing the color of the fixation cross.</p>
      <p>If you press the spacebar correctly (the image really did appear earlier), the fixation cross will turn green. If you pressed the spacebar incorrectly, the fixation cross will turn red.</p>
      <p>Please watch carefully to detect the images that show up again!</p>
      <p>Press any key to start.</p></div>
    ","","","","","","","","","","",""
"true","","preload","4","2.0.0","14231","p48hzab1ry2","panda","","","false","[]","[]","[]","","","","","","",""
"","null","image-keyboard-response","5","2.0.0","16238","p48hzab1ry2","panda","null","stimuli\STATE\USED\Speppers1.jpg","","","","","Memory","false","null","","","",""
"","null","html-keyboard-response","6","2.0.0","16743","p48hzab1ry2","panda","null","<div style=""font-size:60px; color: black;"">+</div>","","","","","","","","","","",""
"","null","image-keyboard-response","7","2.0.0","18750","p48hzab1ry2","panda","null","stimuli\STATE\USED\Sdie1.jpg","","","","","Memory","false","null","","","",""
"","null","html-keyboard-response","8","2.0.0","19253","p48hzab1ry2","panda","null","<div style=""font-size:60px; color: black;"">+</div>","","","","","","","","","","",""
"","null","image-keyboard-response","9","2.0.0","21260","p48hzab1ry2","panda","null","stimuli\STATE\USED\Srainbowslice2.jpg","","","","","Memory","false","null","","","",""
"","null","html-keyboard-response","10","2.0.0","21764","p48hzab1ry2","panda","null","<div style=""font-size:60px; color: black;"">+</div>","","","","","","","","","","",""
"","null","image-keyboard-response","11","2.0.0","23770","p48hzab1ry2","panda","null","stimuli\EXEMPLAR\USED\Ecake1.jpg","","","","","Memory","false","null","","","",""
"","null","html-keyboard-response","12","2.0.0","24273","p48hzab1ry2","panda","null","<div style=""font-size:60px; color: black;"">+</div>","","","","","","","","","","",""
"","null","image-keyboard-response","13","2.0.0","26279","p48hzab1ry2","panda","null","stimuli\STATE\USED\Swaffleiron2.jpg","","","","","Memory","false","null","","","",""
"","null","html-keyboard-response","14","2.0.0","26783","p48hzab1ry2","panda","null","<div style=""font-size:60px; color: black;"">+</div>","","","","","","","","","","",""
"","null","image-keyboard-response","15","2.0.0","28787","p48hzab1ry2","panda","null","stimuli\STATE\USED\Sdie1.jpg","","","","","Memory","true","null","","","",""
"","null","html-keyboard-response","16","2.0.0","29290","p48hzab1ry2","panda","null","<div style=""font-size:60px; color: black;"">+</div>","","","","","","","","","","",""
"","null","image-keyboard-response","17","2.0.0","31298","p48hzab1ry2","panda","null","stimuli\EXEMPLAR\USED\Ebonzai1.jpg","","","","","Memory","false","null","","","",""
"","null","html-keyboard-response","18","2.0.0","31802","p48hzab1ry2","panda","null","<div style=""font-size:60px; color: black;"">+</div>","","","","","","","","","","",""
"","null","image-keyboard-response","19","2.0.0","33808","p48hzab1ry2","panda","null","stimuli\EXEMPLAR\USED\Ekayak2.jpg","","","","","Memory","false","null","","","",""
"","null","html-keyboard-response","20","2.0.0","34310","p48hzab1ry2","panda","null","<div style=""font-size:60px; color: black;"">+</div>","","","","","","","","","","",""
"","null","image-keyboard-response","21","2.0.0","36317","p48hzab1ry2","panda","null","stimuli\EXEMPLAR\USED\Etrowel1.jpg","","","","","Memory","false","null","","","",""
"","null","html-keyboard-response","22","2.0.0","36821","p48hzab1ry2","panda","null","<div style=""font-size:60px; color: black;"">+</div>","","","","","","","","","","",""
"","null","image-keyboard-response","23","2.0.0","38827","p48hzab1ry2","panda","null","stimuli\STATE\USED\Seggplant1.jpg","","","","","Memory","false","null","","","",""
"","null","html-keyboard-response","24","2.0.0","39329","p48hzab1ry2","panda","null","<div style=""font-size:60px; color: black;"">+</div>","","","","","","","","","","",""
"","null","image-keyboard-response","25","2.0.0","41337","p48hzab1ry2","panda","null","stimuli\EXEMPLAR\USED\Eturtle1.jpg","","","","","Memory","false","null","","","",""
"","null","html-keyboard-response","26","2.0.0","41840","p48hzab1ry2","panda","null","<div style=""font-size:60px; color: black;"">+</div>","","","","","","","","","","",""
"","null","image-keyboard-response","27","2.0.0","43846","p48hzab1ry2","panda","null","stimuli\STATE\USED\Sboxwhite2.jpg","","","","","Memory","false","null","","","",""
"","null","html-keyboard-response","28","2.0.0","44348","p48hzab1ry2","panda","null","<div style=""font-size:60px; color: black;"">+</div>","","","","","","","","","","",""
"","null","image-keyboard-response","29","2.0.0","46356","p48hzab1ry2","panda","null","stimuli\STATE\USED\Stiger1.jpg","","","","","Memory","false","null","","","",""
"","null","html-keyboard-response","30","2.0.0","46859","p48hzab1ry2","panda","null","<div style=""font-size:60px; color: black;"">+</div>","","","","","","","","","","",""
"","null","image-keyboard-response","31","2.0.0","48863","p48hzab1ry2","panda","null","stimuli\STATE\USED\Seggplant1.jpg","","","","","Memory","true","null","","","",""
"","null","html-keyboard-response","32","2.0.0","49366","p48hzab1ry2","panda","null","<div style=""font-size:60px; color: black;"">+</div>","","","","","","","","","","",""
"","null","image-keyboard-response","33","2.0.0","51373","p48hzab1ry2","panda","null","stimuli\STATE\USED\Sbook1.JPG","","","","","Memory","false","null","","","",""
"","null","html-keyboard-response","34","2.0.0","51877","p48hzab1ry2","panda","null","<div style=""font-size:60px; color: black;"">+</div>","","","","","","","","","","",""
"","null","image-keyboard-response","35","2.0.0","53883","p48hzab1ry2","panda","null","stimuli\STATE\USED\Sscanner1.JPG","","","","","Memory","false","null","","","",""
"","null","html-keyboard-response","36","2.0.0","54385","p48hzab1ry2","panda","null","<div style=""font-size:60px; color: black;"">+</div>","","","","","","","","","","",""
"","null","image-keyboard-response","37","2.0.0","56391","p48hzab1ry2","panda","null","stimuli\EXEMPLAR\USED\Eholepunch1.jpg","","","","","Memory","false","null","","","",""
"","null","html-keyboard-response","38","2.0.0","56895","p48hzab1ry2","panda","null","<div style=""font-size:60px; color: black;"">+</div>","","","","","","","","","","",""
"","null","image-keyboard-response","39","2.0.0","58901","p48hzab1ry2","panda","null","stimuli\EXEMPLAR\USED\Emicroscope2.jpg","","","","","Memory","false","null","","","",""
"","null","html-keyboard-response","40","2.0.0","59404","p48hzab1ry2","panda","null","<div style=""font-size:60px; color: black;"">+</div>","","","","","","","","","","",""
"","null","image-keyboard-response","41","2.0.0","61411","p48hzab1ry2","panda","null","stimuli\STATE\USED\Sschoolbag2.JPG","","","","","Memory","false","null","","","",""
"","null","html-keyboard-response","42","2.0.0","61914","p48hzab1ry2","panda","null","<div style=""font-size:60px; color: black;"">+</div>","","","","","","","","","","",""
"","null","image-keyboard-response","43","2.0.0","63922","p48hzab1ry2","panda","null","stimuli\STATE\USED\Sgrinder1.jpg","","","","","Memory","false","null","","","",""
"","null","html-keyboard-response","44","2.0.0","64424","p48hzab1ry2","panda","null","<div style=""font-size:60px; color: black;"">+</div>","","","","","","","","","","",""
"","null","image-keyboard-response","45","2.0.0","66432","p48hzab1ry2","panda","null","stimuli\EXEMPLAR\USED\Emuffin1.jpg","","","","","Memory","false","null","","","",""
"","null","html-keyboard-response","46","2.0.0","66936","p48hzab1ry2","panda","null","<div style=""font-size:60px; color: black;"">+</div>","","","","","","","","","","",""
"","null","image-keyboard-response","47","2.0.0","68939","p48hzab1ry2","panda","null","stimuli\EXEMPLAR\USED\Emicroscope2.jpg","","","","","Memory","true","null","","","",""
"","null","html-keyboard-response","48","2.0.0","69443","p48hzab1ry2","panda","null","<div style=""font-size:60px; color: black;"">+</div>","","","","","","","","","","",""
"","null","image-keyboard-response","49","2.0.0","71449","p48hzab1ry2","panda","null","stimuli\EXEMPLAR\USED\Ebicycle1.jpg","","","","","Memory","false","null","","","",""
"","null","html-keyboard-response","50","2.0.0","71952","p48hzab1ry2","panda","null","<div style=""font-size:60px; color: black;"">+</div>","","","","","","","","","","",""
"","null","image-keyboard-response","51","2.0.0","73959","p48hzab1ry2","panda","null","stimuli\EXEMPLAR\USED\Edinosaur2.jpg","","","","","Memory","false","null","","","",""
"","null","html-keyboard-response","52","2.0.0","74462","p48hzab1ry2","panda","null","<div style=""font-size:60px; color: black;"">+</div>","","","","","","","","","","",""
"","null","image-keyboard-response","53","2.0.0","76470","p48hzab1ry2","panda","null","stimuli\EXEMPLAR\USED\Etrophy2.jpg","","","","","Memory","false","null","","","",""
"","null","html-keyboard-response","54","2.0.0","76973","p48hzab1ry2","panda","null","<div style=""font-size:60px; color: black;"">+</div>","","","","","","","","","","",""
"","null","image-keyboard-response","55","2.0.0","78980","p48hzab1ry2","panda","null","stimuli\STATE\USED\Slaptop1.JPG","","","","","Memory","false","null","","","",""
"","null","html-keyboard-response","56","2.0.0","79483","p48hzab1ry2","panda","null","<div style=""font-size:60px; color: black;"">+</div>","","","","","","","","","","",""
"","null","image-keyboard-response","57","2.0.0","81489","p48hzab1ry2","panda","null","stimuli\STATE\USED\Saccordionsmall2.JPG","","","","","Memory","false","null","","","",""
"","null","html-keyboard-response","58","2.0.0","81993","p48hzab1ry2","panda","null","<div style=""font-size:60px; color: black;"">+</div>","","","","","","","","","","",""
"","null","image-keyboard-response","59","2.0.0","84001","p48hzab1ry2","panda","null","stimuli\EXEMPLAR\USED\Epotatochips2.jpg","","","","","Memory","false","null","","","",""
"","null","html-keyboard-response","60","2.0.0","84505","p48hzab1ry2","panda","null","<div style=""font-size:60px; color: black;"">+</div>","","","","","","","","","","",""
"","null","image-keyboard-response","61","2.0.0","86509","p48hzab1ry2","panda","null","stimuli\EXEMPLAR\USED\Etrophy2.jpg","","","","","Memory","true","null","","","",""
"","null","html-keyboard-response","62","2.0.0","87013","p48hzab1ry2","panda","null","<div style=""font-size:60px; color: black;"">+</div>","","","","","","","","","","",""
"","null","image-keyboard-response","63","2.0.0","89020","p48hzab1ry2","panda","null","stimuli\STATE\USED\Sapplesredbasket2.JPG","","","","","Memory","false","null","","","",""
"","null","html-keyboard-response","64","2.0.0","89524","p48hzab1ry2","panda","null","<div style=""font-size:60px; color: black;"">+</div>","","","","","","","","","","",""
"","null","image-keyboard-response","65","2.0.0","91531","p48hzab1ry2","panda","null","stimuli\STATE\USED\Sgiftbag2.jpg","","","","","Memory","false","null","","","",""
"","null","html-keyboard-response","66","2.0.0","92036","p48hzab1ry2","panda","null","<div style=""font-size:60px; color: black;"">+</div>","","","","","","","","","","",""
"","null","image-keyboard-response","67","2.0.0","94041","p48hzab1ry2","panda","null","stimuli\EXEMPLAR\USED\Eheadphones2.jpg","","","","","Memory","false","null","","","",""
"","null","html-keyboard-response","68","2.0.0","94543","p48hzab1ry2","panda","null","<div style=""font-size:60px; color: black;"">+</div>","","","","","","","","","","",""
"","null","image-keyboard-response","69","2.0.0","96550","p48hzab1ry2","panda","null","stimuli\EXEMPLAR\USED\Ehotairballoon2.jpg","","","","","Memory","false","null","","","",""
"","null","html-keyboard-response","70","2.0.0","97053","p48hzab1ry2","panda","null","<div style=""font-size:60px; color: black;"">+</div>","","","","","","","","","","",""
"","null","image-keyboard-response","71","2.0.0","99060","p48hzab1ry2","panda","null","stimuli\EXEMPLAR\USED\Eglobe1.jpg","","","","","Memory","false","null","","","",""
"","null","html-keyboard-response","72","2.0.0","99563","p48hzab1ry2","panda","null","<div style=""font-size:60px; color: black;"">+</div>","","","","","","","","","","",""
"","null","image-keyboard-response","73","2.0.0","101568","p48hzab1ry2","panda","null","stimuli\STATE\USED\Sgiftbag2.jpg","","","","","Memory","true","null","","","",""
"","null","html-keyboard-response","74","2.0.0","102072","p48hzab1ry2","panda","null","<div style=""font-size:60px; color: black;"">+</div>","","","","","","","","","","",""
"","null","image-keyboard-response","75","2.0.0","104079","p48hzab1ry2","panda","null","stimuli\EXEMPLAR\USED\Erazor2.jpg","","","","","Memory","false","null","","","",""
"","null","html-keyboard-response","76","2.0.0","104583","p48hzab1ry2","panda","null","<div style=""font-size:60px; color: black;"">+</div>","","","","","","","","","","",""
"","null","image-keyboard-response","77","2.0.0","106589","p48hzab1ry2","panda","null","stimuli\STATE\USED\Sapplesgreenbasket2.jpg","","","","","Memory","false","null","","","",""
"","null","html-keyboard-response","78","2.0.0","107093","p48hzab1ry2","panda","null","<div style=""font-size:60px; color: black;"">+</div>","","","","","","","","","","",""
"","null","image-keyboard-response","79","2.0.0","109099","p48hzab1ry2","panda","null","stimuli\EXEMPLAR\USED\Eladder2.jpg","","","","","Memory","false","null","","","",""
"","null","html-keyboard-response","80","2.0.0","109602","p48hzab1ry2","panda","null","<div style=""font-size:60px; color: black;"">+</div>","","","","","","","","","","",""
"","null","image-keyboard-response","81","2.0.0","111608","p48hzab1ry2","panda","null","stimuli\EXEMPLAR\USED\Enozzle2.jpg","","","","","Memory","false","null","","","",""
"","null","html-keyboard-response","82","2.0.0","112111","p48hzab1ry2","panda","null","<div style=""font-size:60px; color: black;"">+</div>","","","","","","","","","","",""
"","null","image-keyboard-response","83","2.0.0","114119","p48hzab1ry2","panda","null","stimuli\EXEMPLAR\USED\Eplate1.jpg","","","","","Memory","false","null","","","",""
"","null","html-keyboard-response","84","2.0.0","114622","p48hzab1ry2","panda","null","<div style=""font-size:60px; color: black;"">+</div>","","","","","","","","","","",""
"","null","image-keyboard-response","85","2.0.0","116628","p48hzab1ry2","panda","null","stimuli\EXEMPLAR\USED\Eremote1.jpg","","","","","Memory","false","null","","","",""
"","null","html-keyboard-response","86","2.0.0","117133","p48hzab1ry2","panda","null","<div style=""font-size:60px; color: black;"">+</div>","","","","","","","","","","",""
"","null","image-keyboard-response","87","2.0.0","119139","p48hzab1ry2","panda","null","stimuli\STATE\USED\Shandsign1.JPG","","","","","Memory","false","null","","","",""
"","null","html-keyboard-response","88","2.0.0","119642","p48hzab1ry2","panda","null","<div style=""font-size:60px; color: black;"">+</div>","","","","","","","","","","",""
"","null","image-keyboard-response","89","2.0.0","121648","p48hzab1ry2","panda","null","stimuli\STATE\USED\Sjuiceglass1.JPG","","","","","Memory","false","null","","","",""
"","null","html-keyboard-response","90","2.0.0","122151","p48hzab1ry2","panda","null","<div style=""font-size:60px; color: black;"">+</div>","","","","","","","","","","",""
"","null","image-keyboard-response","91","2.0.0","124157","p48hzab1ry2","panda","null","stimuli\EXEMPLAR\USED\Emitt2.jpg","","","","","Memory","false","null","","","",""
"","null","html-keyboard-response","92","2.0.0","124661","p48hzab1ry2","panda","null","<div style=""font-size:60px; color: black;"">+</div>","","","","","","","","","","",""
"","null","image-keyboard-response","93","2.0.0","126666","p48hzab1ry2","panda","null","stimuli\EXEMPLAR\USED\Eremote1.jpg","","","","","Memory","true","null","","","",""
"","null","html-keyboard-response","94","2.0.0","127170","p48hzab1ry2","panda","null","<div style=""font-size:60px; color: black;"">+</div>","","","","","","","","","","",""
"","null","image-keyboard-response","95","2.0.0","129177","p48hzab1ry2","panda","null","stimuli\STATE\USED\Sdrum1.jpg","","","","","Memory","false","null","","","",""
"","null","html-keyboard-response","96","2.0.0","129680","p48hzab1ry2","panda","null","<div style=""font-size:60px; color: black;"">+</div>","","","","","","","","","","",""
"","null","image-keyboard-response","97","2.0.0","131688","p48hzab1ry2","panda","null","stimuli\STATE\USED\Sgiftbox1.jpg","","","","","Memory","false","null","","","",""
"","null","html-keyboard-response","98","2.0.0","132191","p48hzab1ry2","panda","null","<div style=""font-size:60px; color: black;"">+</div>","","","","","","","","","","",""
"","null","image-keyboard-response","99","2.0.0","134197","p48hzab1ry2","panda","null","stimuli\EXEMPLAR\USED\Edispenser1.jpg","","","","","Memory","false","null","","","",""
"","null","html-keyboard-response","100","2.0.0","134701","p48hzab1ry2","panda","null","<div style=""font-size:60px; color: black;"">+</div>","","","","","","","","","","",""
"","null","image-keyboard-response","101","2.0.0","136706","p48hzab1ry2","panda","null","stimuli\EXEMPLAR\USED\Efolder2.jpg","","","","","Memory","false","null","","","",""
"","null","html-keyboard-response","102","2.0.0","137210","p48hzab1ry2","panda","null","<div style=""font-size:60px; color: black;"">+</div>","","","","","","","","","","",""
"","null","image-keyboard-response","103","2.0.0","139216","p48hzab1ry2","panda","null","stimuli\STATE\USED\Sbriefcasemetal2.JPG","","","","","Memory","false","null","","","",""
"","null","html-keyboard-response","104","2.0.0","139719","p48hzab1ry2","panda","null","<div style=""font-size:60px; color: black;"">+</div>","","","","","","","","","","",""
"","null","image-keyboard-response","105","2.0.0","141726","p48hzab1ry2","panda","null","stimuli\STATE\USED\Ssweater2.jpg","","","","","Memory","false","null","","","",""
"","null","html-keyboard-response","106","2.0.0","142229","p48hzab1ry2","panda","null","<div style=""font-size:60px; color: black;"">+</div>","","","","","","","","","","",""
"","18537","html-button-response","107","2.0.0","160771","p48hzab1ry2","panda","0","Are you still there?","","","","","Attention Check","","","","","",""
"","null","image-keyboard-response","108","2.0.0","162775","p48hzab1ry2","panda","null","stimuli\STATE\USED\Spotpan1.JPG","","","","","Memory","false","null","","","",""
"","null","html-keyboard-response","109","2.0.0","163278","p48hzab1ry2","panda","null","<div style=""font-size:60px; color: black;"">+</div>","","","","","","","","","","",""
"","null","image-keyboard-response","110","2.0.0","165283","p48hzab1ry2","panda","null","stimuli\EXEMPLAR\USED\Efolder2.jpg","","","","","Memory","true","null","","","",""
"","null","html-keyboard-response","111","2.0.0","165787","p48hzab1ry2","panda","null","<div style=""font-size:60px; color: black;"">+</div>","","","","","","","","","","",""
"","null","image-keyboard-response","112","2.0.0","167793","p48hzab1ry2","panda","null","stimuli\EXEMPLAR\USED\Etoyplane2.jpg","","","","","Memory","false","null","","","",""
"","null","html-keyboard-response","113","2.0.0","168296","p48hzab1ry2","panda","null","<div style=""font-size:60px; color: black;"">+</div>","","","","","","","","","","",""
"","null","image-keyboard-response","114","2.0.0","170303","p48hzab1ry2","panda","null","stimuli\EXEMPLAR\USED\Eteapot2.JPG","","","","","Memory","false","null","","","",""
"","null","html-keyboard-response","115","2.0.0","170805","p48hzab1ry2","panda","null","<div style=""font-size:60px; color: black;"">+</div>","","","","","","","","","","",""
"","null","image-keyboard-response","116","2.0.0","172811","p48hzab1ry2","panda","null","stimuli\STATE\USED\Sredcabbage2.jpg","","","","","Memory","false","null","","","",""
"","null","html-keyboard-response","117","2.0.0","173315","p48hzab1ry2","panda","null","<div style=""font-size:60px; color: black;"">+</div>","","","","","","","","","","",""
"","null","image-keyboard-response","118","2.0.0","175322","p48hzab1ry2","panda","null","stimuli\STATE\USED\Sdryer1.jpg","","","","","Memory","false","null","","","",""
"","null","html-keyboard-response","119","2.0.0","175825","p48hzab1ry2","panda","null","<div style=""font-size:60px; color: black;"">+</div>","","","","","","","","","","",""
"","null","image-keyboard-response","120","2.0.0","177832","p48hzab1ry2","panda","null","stimuli\STATE\USED\Schinesefoodbox1.jpg","","","","","Memory","false","null","","","",""
"","null","html-keyboard-response","121","2.0.0","178335","p48hzab1ry2","panda","null","<div style=""font-size:60px; color: black;"">+</div>","","","","","","","","","","",""
"","null","image-keyboard-response","122","2.0.0","180338","p48hzab1ry2","panda","null","stimuli\EXEMPLAR\USED\Ebrick2.jpg","","","","","Memory","false","null","","","",""
"","null","html-keyboard-response","123","2.0.0","180841","p48hzab1ry2","panda","null","<div style=""font-size:60px; color: black;"">+</div>","","","","","","","","","","",""
"","null","image-keyboard-response","124","2.0.0","182848","p48hzab1ry2","panda","null","stimuli\STATE\USED\Sflask1.jpg","","","","","Memory","false","null","","","",""
"","null","html-keyboard-response","125","2.0.0","183352","p48hzab1ry2","panda","null","<div style=""font-size:60px; color: black;"">+</div>","","","","","","","","","","",""
"","null","image-keyboard-response","126","2.0.0","185359","p48hzab1ry2","panda","null","stimuli\EXEMPLAR\USED\Ehelmet2.jpg","","","","","Memory","false","null","","","",""
"","null","html-keyboard-response","127","2.0.0","185862","p48hzab1ry2","panda","null","<div style=""font-size:60px; color: black;"">+</div>","","","","","","","","","","",""
"","null","image-keyboard-response","128","2.0.0","187867","p48hzab1ry2","panda","null","stimuli\EXEMPLAR\USED\Ehorn2.jpg","","","","","Memory","false","null","","","",""
"","null","html-keyboard-response","129","2.0.0","188370","p48hzab1ry2","panda","null","<div style=""font-size:60px; color: black;"">+</div>","","","","","","","","","","",""
"","null","image-keyboard-response","130","2.0.0","190377","p48hzab1ry2","panda","null","stimuli\EXEMPLAR\USED\Eswimsuit2.jpg","","","","","Memory","false","null","","","",""
"","null","html-keyboard-response","131","2.0.0","190880","p48hzab1ry2","panda","null","<div style=""font-size:60px; color: black;"">+</div>","","","","","","","","","","",""
"","null","image-keyboard-response","132","2.0.0","192887","p48hzab1ry2","panda","null","stimuli\STATE\USED\Smedicaltape2.jpg","","","","","Memory","false","null","","","",""
"","null","html-keyboard-response","133","2.0.0","193390","p48hzab1ry2","panda","null","<div style=""font-size:60px; color: black;"">+</div>","","","","","","","","","","",""
"","null","image-keyboard-response","134","2.0.0","195396","p48hzab1ry2","panda","null","stimuli\EXEMPLAR\USED\Eelectricbass1.jpg","","","","","Memory","false","null","","","",""
"","null","html-keyboard-response","135","2.0.0","195900","p48hzab1ry2","panda","null","<div style=""font-size:60px; color: black;"">+</div>","","","","","","","","","","",""
"","null","image-keyboard-response","136","2.0.0","197907","p48hzab1ry2","panda","null","stimuli\STATE\USED\Sdonut2.jpg","","","","","Memory","false","null","","","",""
"","null","html-keyboard-response","137","2.0.0","198410","p48hzab1ry2","panda","null","<div style=""font-size:60px; color: black;"">+</div>","","","","","","","","","","",""
"","null","image-keyboard-response","138","2.0.0","200416","p48hzab1ry2","panda","null","stimuli\EXEMPLAR\USED\Etrain2.jpg","","","","","Memory","false","null","","","",""
"","null","html-keyboard-response","139","2.0.0","200920","p48hzab1ry2","panda","null","<div style=""font-size:60px; color: black;"">+</div>","","","","","","","","","","",""
"","null","image-keyboard-response","140","2.0.0","202923","p48hzab1ry2","panda","null","stimuli\STATE\USED\Smedicaltape2.jpg","","","","","Memory","true","null","","","",""
"","null","html-keyboard-response","141","2.0.0","203426","p48hzab1ry2","panda","null","<div style=""font-size:60px; color: black;"">+</div>","","","","","","","","","","",""
"","null","image-keyboard-response","142","2.0.0","205432","p48hzab1ry2","panda","null","stimuli\EXEMPLAR\USED\Egame2.jpg","","","","","Memory","false","null","","","",""
"","null","html-keyboard-response","143","2.0.0","205935","p48hzab1ry2","panda","null","<div style=""font-size:60px; color: black;"">+</div>","","","","","","","","","","",""
"","null","image-keyboard-response","144","2.0.0","207941","p48hzab1ry2","panda","null","stimuli\STATE\USED\Sscissors2.JPG","","","","","Memory","false","null","","","",""
"","null","html-keyboard-response","145","2.0.0","208445","p48hzab1ry2","panda","null","<div style=""font-size:60px; color: black;"">+</div>","","","","","","","","","","",""
"","null","image-keyboard-response","146","2.0.0","210454","p48hzab1ry2","panda","null","stimuli\EXEMPLAR\USED\Etoyhand1.jpg","","","","","Memory","false","null","","","",""
"","null","html-keyboard-response","147","2.0.0","210957","p48hzab1ry2","panda","null","<div style=""font-size:60px; color: black;"">+</div>","","","","","","","","","","",""
"","null","image-keyboard-response","148","2.0.0","212964","p48hzab1ry2","panda","null","stimuli\STATE\USED\Spolarbear2.jpg","","","","","Memory","false","null","","","",""
"","null","html-keyboard-response","149","2.0.0","213468","p48hzab1ry2","panda","null","<div style=""font-size:60px; color: black;"">+</div>","","","","","","","","","","",""
"","null","image-keyboard-response","150","2.0.0","215474","p48hzab1ry2","panda","null","stimuli\EXEMPLAR\USED\Etoywrench1.jpg","","","","","Memory","false","null","","","",""
"","null","html-keyboard-response","151","2.0.0","215978","p48hzab1ry2","panda","null","<div style=""font-size:60px; color: black;"">+</div>","","","","","","","","","","",""
"","null","image-keyboard-response","152","2.0.0","217985","p48hzab1ry2","panda","null","stimuli\STATE\USED\Srhino1.jpg","","","","","Memory","false","null","","","",""
"","null","html-keyboard-response","153","2.0.0","218488","p48hzab1ry2","panda","null","<div style=""font-size:60px; color: black;"">+</div>","","","","","","","","","","",""
"","null","image-keyboard-response","154","2.0.0","220494","p48hzab1ry2","panda","null","stimuli\STATE\USED\Sbureau1.JPG","","","","","Memory","false","null","","","",""
"","null","html-keyboard-response","155","2.0.0","220997","p48hzab1ry2","panda","null","<div style=""font-size:60px; color: black;"">+</div>","","","","","","","","","","",""
"","null","image-keyboard-response","156","2.0.0","223004","p48hzab1ry2","panda","null","stimuli\EXEMPLAR\USED\Ebell1.jpg","","","","","Memory","false","null","","","",""
"","null","html-keyboard-response","157","2.0.0","223506","p48hzab1ry2","panda","null","<div style=""font-size:60px; color: black;"">+</div>","","","","","","","","","","",""
"","null","image-keyboard-response","158","2.0.0","225513","p48hzab1ry2","panda","null","stimuli\EXEMPLAR\USED\Etractor2.jpg","","","","","Memory","false","null","","","",""
"","null","html-keyboard-response","159","2.0.0","226016","p48hzab1ry2","panda","null","<div style=""font-size:60px; color: black;"">+</div>","","","","","","","","","","",""
"","null","image-keyboard-response","160","2.0.0","228020","p48hzab1ry2","panda","null","stimuli\STATE\USED\Srhino1.jpg","","","","","Memory","true","null","","","",""
"","null","html-keyboard-response","161","2.0.0","228523","p48hzab1ry2","panda","null","<div style=""font-size:60px; color: black;"">+</div>","","","","","","","","","","",""
"","null","image-keyboard-response","162","2.0.0","230528","p48hzab1ry2","panda","null","stimuli\STATE\USED\Sseatbelt2.jpg","","","","","Memory","false","null","","","",""
"","null","html-keyboard-response","163","2.0.0","231031","p48hzab1ry2","panda","null","<div style=""font-size:60px; color: black;"">+</div>","","","","","","","","","","",""
"","null","image-keyboard-response","164","2.0.0","233037","p48hzab1ry2","panda","null","stimuli\EXEMPLAR\USED\Echocolatebar2.jpg","","","","","Memory","false","null","","","",""
"","null","html-keyboard-response","165","2.0.0","233541","p48hzab1ry2","panda","null","<div style=""font-size:60px; color: black;"">+</div>","","","","","","","","","","",""
"","null","image-keyboard-response","166","2.0.0","235547","p48hzab1ry2","panda","null","stimuli\STATE\USED\Sclipboard1.jpg","","","","","Memory","false","null","","","",""
"","null","html-keyboard-response","167","2.0.0","236051","p48hzab1ry2","panda","null","<div style=""font-size:60px; color: black;"">+</div>","","","","","","","","","","",""
"","null","image-keyboard-response","168","2.0.0","238058","p48hzab1ry2","panda","null","stimuli\STATE\USED\Sphoneold2.jpg","","","","","Memory","false","null","","","",""
"","null","html-keyboard-response","169","2.0.0","238561","p48hzab1ry2","panda","null","<div style=""font-size:60px; color: black;"">+</div>","","","","","","","","","","",""
"","null","image-keyboard-response","170","2.0.0","240568","p48hzab1ry2","panda","null","stimuli\EXEMPLAR\USED\Etoykeys1.jpg","","","","","Memory","false","null","","","",""
"","null","html-keyboard-response","171","2.0.0","241071","p48hzab1ry2","panda","null","<div style=""font-size:60px; color: black;"">+</div>","","","","","","","","","","",""
"","null","image-keyboard-response","172","2.0.0","243077","p48hzab1ry2","panda","null","stimuli\STATE\USED\Sbox2.jpg","","","","","Memory","false","null","","","",""
"","null","html-keyboard-response","173","2.0.0","243581","p48hzab1ry2","panda","null","<div style=""font-size:60px; color: black;"">+</div>","","","","","","","","","","",""
"","null","image-keyboard-response","174","2.0.0","245584","p48hzab1ry2","panda","null","stimuli\STATE\USED\Sclipboard1.jpg","","","","","Memory","true","null","","","",""
"","null","html-keyboard-response","175","2.0.0","246087","p48hzab1ry2","panda","null","<div style=""font-size:60px; color: black;"">+</div>","","","","","","","","","","",""
"","null","image-keyboard-response","176","2.0.0","248094","p48hzab1ry2","panda","null","stimuli\STATE\USED\Shandmirror1.jpg","","","","","Memory","false","null","","","",""
"","null","html-keyboard-response","177","2.0.0","248597","p48hzab1ry2","panda","null","<div style=""font-size:60px; color: black;"">+</div>","","","","","","","","","","",""
"","null","image-keyboard-response","178","2.0.0","250605","p48hzab1ry2","panda","null","stimuli\EXEMPLAR\USED\Ehanger1.jpg","","","","","Memory","false","null","","","",""
"","null","html-keyboard-response","179","2.0.0","251109","p48hzab1ry2","panda","null","<div style=""font-size:60px; color: black;"">+</div>","","","","","","","","","","",""
"","null","image-keyboard-response","180","2.0.0","253116","p48hzab1ry2","panda","null","stimuli\STATE\USED\Sdresser2.jpg","","","","","Memory","false","null","","","",""
"","null","html-keyboard-response","181","2.0.0","253619","p48hzab1ry2","panda","null","<div style=""font-size:60px; color: black;"">+</div>","","","","","","","","","","",""
"","null","image-keyboard-response","182","2.0.0","255626","p48hzab1ry2","panda","null","stimuli\EXEMPLAR\USED\Ecamera1.jpg","","","","","Memory","false","null","","","",""
"","null","html-keyboard-response","183","2.0.0","256130","p48hzab1ry2","panda","null","<div style=""font-size:60px; color: black;"">+</div>","","","","","","","","","","",""
"","null","image-keyboard-response","184","2.0.0","258136","p48hzab1ry2","panda","null","stimuli\EXEMPLAR\USED\Epliers2.jpg","","","","","Memory","false","null","","","",""
"","null","html-keyboard-response","185","2.0.0","258639","p48hzab1ry2","panda","null","<div style=""font-size:60px; color: black;"">+</div>","","","","","","","","","","",""
"","null","image-keyboard-response","186","2.0.0","260645","p48hzab1ry2","panda","null","stimuli\EXEMPLAR\USED\Ebinoculars2.jpg","","","","","Memory","false","null","","","",""
"","null","html-keyboard-response","187","2.0.0","261149","p48hzab1ry2","panda","null","<div style=""font-size:60px; color: black;"">+</div>","","","","","","","","","","",""
"","null","image-keyboard-response","188","2.0.0","263155","p48hzab1ry2","panda","null","stimuli\STATE\USED\Scateringtray2.jpg","","","","","Memory","false","null","","","",""
"","null","html-keyboard-response","189","2.0.0","263658","p48hzab1ry2","panda","null","<div style=""font-size:60px; color: black;"">+</div>","","","","","","","","","","",""
"","null","image-keyboard-response","190","2.0.0","265666","p48hzab1ry2","panda","null","stimuli\STATE\USED\Spumpkinpie1.jpg","","","","","Memory","false","null","","","",""
"","null","html-keyboard-response","191","2.0.0","266169","p48hzab1ry2","panda","null","<div style=""font-size:60px; color: black;"">+</div>","","","","","","","","","","",""
"","null","image-keyboard-response","192","2.0.0","268176","p48hzab1ry2","panda","null","stimuli\EXEMPLAR\USED\Elog1.jpg","","","","","Memory","false","null","","","",""
"","null","html-keyboard-response","193","2.0.0","268679","p48hzab1ry2","panda","null","<div style=""font-size:60px; color: black;"">+</div>","","","","","","","","","","",""
"","null","image-keyboard-response","194","2.0.0","270682","p48hzab1ry2","panda","null","stimuli\EXEMPLAR\USED\Ebinoculars2.jpg","","","","","Memory","true","null","","","",""
"","null","html-keyboard-response","195","2.0.0","271186","p48hzab1ry2","panda","null","<div style=""font-size:60px; color: black;"">+</div>","","","","","","","","","","",""
"","null","image-keyboard-response","196","2.0.0","273193","p48hzab1ry2","panda","null","stimuli\STATE\USED\Spie1.JPG","","","","","Memory","false","null","","","",""
"","null","html-keyboard-response","197","2.0.0","273697","p48hzab1ry2","panda","null","<div style=""font-size:60px; color: black;"">+</div>","","","","","","","","","","",""
"","null","image-keyboard-response","198","2.0.0","275704","p48hzab1ry2","panda","null","stimuli\STATE\USED\Snapkins1.jpg","","","","","Memory","false","null","","","",""
"","null","html-keyboard-response","199","2.0.0","276208","p48hzab1ry2","panda","null","<div style=""font-size:60px; color: black;"">+</div>","","","","","","","","","","",""
"","null","image-keyboard-response","200","2.0.0","278214","p48hzab1ry2","panda","null","stimuli\STATE\USED\Stypewriter2.jpg","","","","","Memory","false","null","","","",""
"","null","html-keyboard-response","201","2.0.0","278718","p48hzab1ry2","panda","null","<div style=""font-size:60px; color: black;"">+</div>","","","","","","","","","","",""
"","null","image-keyboard-response","202","2.0.0","280724","p48hzab1ry2","panda","null","stimuli\STATE\USED\Sumbrella1.jpg","","","","","Memory","false","null","","","",""
"","null","html-keyboard-response","203","2.0.0","281227","p48hzab1ry2","panda","null","<div style=""font-size:60px; color: black;"">+</div>","","","","","","","","","","",""
"","null","image-keyboard-response","204","2.0.0","283233","p48hzab1ry2","panda","null","stimuli\STATE\USED\Sapple2.jpg","","","","","Memory","false","null","","","",""
"","null","html-keyboard-response","205","2.0.0","283736","p48hzab1ry2","panda","null","<div style=""font-size:60px; color: black;"">+</div>","","","","","","","","","","",""
"","null","image-keyboard-response","206","2.0.0","285742","p48hzab1ry2","panda","null","stimuli\STATE\USED\Sbooks2.JPG","","","","","Memory","false","null","","","",""
"","null","html-keyboard-response","207","2.0.0","286246","p48hzab1ry2","panda","null","<div style=""font-size:60px; color: black;"">+</div>","","","","","","","","","","",""
"","null","image-keyboard-response","208","2.0.0","288251","p48hzab1ry2","panda","null","stimuli\EXEMPLAR\USED\Esantahat1.jpg","","","","","Memory","false","null","","","",""
"","null","html-keyboard-response","209","2.0.0","288755","p48hzab1ry2","panda","null","<div style=""font-size:60px; color: black;"">+</div>","","","","","","","","","","",""
"","15608","html-button-response","210","2.0.0","304365","p48hzab1ry2","panda","0","Are you still there?","","","","","Attention Check","","","","","",""
"","null","image-keyboard-response","211","2.0.0","306369","p48hzab1ry2","panda","null","stimuli\EXEMPLAR\USED\Earch2.jpg","","","","","Memory","false","null","","","",""
"","null","html-keyboard-response","212","2.0.0","306873","p48hzab1ry2","panda","null","<div style=""font-size:60px; color: black;"">+</div>","","","","","","","","","","",""
"","null","image-keyboard-response","213","2.0.0","308880","p48hzab1ry2","panda","null","stimuli\EXEMPLAR\USED\Ehoe1.jpg","","","","","Memory","false","null","","","",""
"","null","html-keyboard-response","214","2.0.0","309383","p48hzab1ry2","panda","null","<div style=""font-size:60px; color: black;"">+</div>","","","","","","","","","","",""
"","null","image-keyboard-response","215","2.0.0","311388","p48hzab1ry2","panda","null","stimuli\STATE\USED\Spiggybank2.jpg","","","","","Memory","false","null","","","",""
"","null","html-keyboard-response","216","2.0.0","311890","p48hzab1ry2","panda","null","<div style=""font-size:60px; color: black;"">+</div>","","","","","","","","","","",""
"","null","image-keyboard-response","217","2.0.0","313893","p48hzab1ry2","panda","null","stimuli\EXEMPLAR\USED\Esantahat1.jpg","","","","","Memory","true","null","","","",""
"","null","html-keyboard-response","218","2.0.0","314396","p48hzab1ry2","panda","null","<div style=""font-size:60px; color: black;"">+</div>","","","","","","","","","","",""
"","null","image-keyboard-response","219","2.0.0","316405","p48hzab1ry2","panda","null","stimuli\STATE\USED\Sstoplight1.jpg","","","","","Memory","false","null","","","",""
"","null","html-keyboard-response","220","2.0.0","316909","p48hzab1ry2","panda","null","<div style=""font-size:60px; color: black;"">+</div>","","","","","","","","","","",""
"","null","image-keyboard-response","221","2.0.0","318914","p48hzab1ry2","panda","null","stimuli\EXEMPLAR\USED\Eicecream2.jpg","","","","","Memory","false","null","","","",""
"","null","html-keyboard-response","222","2.0.0","319416","p48hzab1ry2","panda","null","<div style=""font-size:60px; color: black;"">+</div>","","","","","","","","","","",""
"","null","image-keyboard-response","223","2.0.0","321424","p48hzab1ry2","panda","null","stimuli\STATE\USED\Shandshake2.JPG","","","","","Memory","false","null","","","",""
"","null","html-keyboard-response","224","2.0.0","321928","p48hzab1ry2","panda","null","<div style=""font-size:60px; color: black;"">+</div>","","","","","","","","","","",""
"","null","image-keyboard-response","225","2.0.0","323934","p48hzab1ry2","panda","null","stimuli\STATE\USED\Spadlock2.jpg","","","","","Memory","false","null","","","",""
"","null","html-keyboard-response","226","2.0.0","324436","p48hzab1ry2","panda","null","<div style=""font-size:60px; color: black;"">+</div>","","","","","","","","","","",""
"","null","image-keyboard-response","227","2.0.0","326444","p48hzab1ry2","panda","null","stimuli\EXEMPLAR\USED\Esuitcase1.jpg","","","","","Memory","false","null","","","",""
"","null","html-keyboard-response","228","2.0.0","326946","p48hzab1ry2","panda","null","<div style=""font-size:60px; color: black;"">+</div>","","","","","","","","","","",""
"","null","image-keyboard-response","229","2.0.0","328952","p48hzab1ry2","panda","null","stimuli\STATE\USED\Slockbox1.jpg","","","","","Memory","false","null","","","",""
"","null","html-keyboard-response","230","2.0.0","329454","p48hzab1ry2","panda","null","<div style=""font-size:60px; color: black;"">+</div>","","","","","","","","","","",""
"","null","image-keyboard-response","231","2.0.0","331459","p48hzab1ry2","panda","null","stimuli\STATE\USED\Shandshake2.JPG","","","","","Memory","true","null","","","",""
"","null","html-keyboard-response","232","2.0.0","331962","p48hzab1ry2","panda","null","<div style=""font-size:60px; color: black;"">+</div>","","","","","","","","","","",""
"","null","image-keyboard-response","233","2.0.0","333968","p48hzab1ry2","panda","null","stimuli\STATE\USED\Spestle2.jpg","","","","","Memory","false","null","","","",""
"","null","html-keyboard-response","234","2.0.0","334470","p48hzab1ry2","panda","null","<div style=""font-size:60px; color: black;"">+</div>","","","","","","","","","","",""
"","null","image-keyboard-response","235","2.0.0","336476","p48hzab1ry2","panda","null","stimuli\EXEMPLAR\USED\Emoney1.jpg","","","","","Memory","false","null","","","",""
"","null","html-keyboard-response","236","2.0.0","336979","p48hzab1ry2","panda","null","<div style=""font-size:60px; color: black;"">+</div>","","","","","","","","","","",""
"","null","image-keyboard-response","237","2.0.0","338985","p48hzab1ry2","panda","null","stimuli\EXEMPLAR\USED\Etongs1.jpg","","","","","Memory","false","null","","","",""
"","null","html-keyboard-response","238","2.0.0","339488","p48hzab1ry2","panda","null","<div style=""font-size:60px; color: black;"">+</div>","","","","","","","","","","",""
"","null","image-keyboard-response","239","2.0.0","341495","p48hzab1ry2","panda","null","stimuli\STATE\USED\Scoffeemaker1.JPG","","","","","Memory","false","null","","","",""
"","null","html-keyboard-response","240","2.0.0","341997","p48hzab1ry2","panda","null","<div style=""font-size:60px; color: black;"">+</div>","","","","","","","","","","",""
"","null","image-keyboard-response","241","2.0.0","344001","p48hzab1ry2","panda","null","stimuli\STATE\USED\Spestle2.jpg","","","","","Memory","true","null","","","",""
"","null","html-keyboard-response","242","2.0.0","344503","p48hzab1ry2","panda","null","<div style=""font-size:60px; color: black;"">+</div>","","","","","","","","","","",""
"","null","image-keyboard-response","243","2.0.0","346510","p48hzab1ry2","panda","null","stimuli\STATE\USED\Spatiotable2.jpg","","","","","Memory","false","null","","","",""
"","null","html-keyboard-response","244","2.0.0","347014","p48hzab1ry2","panda","null","<div style=""font-size:60px; color: black;"">+</div>","","","","","","","","","","",""
"","null","image-keyboard-response","245","2.0.0","349020","p48hzab1ry2","panda","null","stimuli\EXEMPLAR\USED\Emuffler1.jpg","","","","","Memory","false","null","","","",""
"","null","html-keyboard-response","246","2.0.0","349522","p48hzab1ry2","panda","null","<div style=""font-size:60px; color: black;"">+</div>","","","","","","","","","","",""
"","null","image-keyboard-response","247","2.0.0","351529","p48hzab1ry2","panda","null","stimuli\STATE\USED\Sdoughhands1.jpg","","","","","Memory","false","null","","","",""
"","null","html-keyboard-response","248","2.0.0","352035","p48hzab1ry2","panda","null","<div style=""font-size:60px; color: black;"">+</div>","","","","","","","","","","",""
"","null","image-keyboard-response","249","2.0.0","354040","p48hzab1ry2","panda","null","stimuli\EXEMPLAR\USED\Emedal2.jpg","","","","","Memory","false","null","","","",""
"","null","html-keyboard-response","250","2.0.0","354543","p48hzab1ry2","panda","null","<div style=""font-size:60px; color: black;"">+</div>","","","","","","","","","","",""
"","null","image-keyboard-response","251","2.0.0","356550","p48hzab1ry2","panda","null","stimuli\EXEMPLAR\USED\Escroll1.jpg","","","","","Memory","false","null","","","",""
"","null","html-keyboard-response","252","2.0.0","357053","p48hzab1ry2","panda","null","<div style=""font-size:60px; color: black;"">+</div>","","","","","","","","","","",""
"","null","image-keyboard-response","253","2.0.0","359059","p48hzab1ry2","panda","null","stimuli\EXEMPLAR\USED\Echeeses2.jpg","","","","","Memory","false","null","","","",""
"","null","html-keyboard-response","254","2.0.0","359561","p48hzab1ry2","panda","null","<div style=""font-size:60px; color: black;"">+</div>","","","","","","","","","","",""
"","null","image-keyboard-response","255","2.0.0","361567","p48hzab1ry2","panda","null","stimuli\STATE\USED\Sbreadslice2.jpg","","","","","Memory","false","null","","","",""
"","null","html-keyboard-response","256","2.0.0","362070","p48hzab1ry2","panda","null","<div style=""font-size:60px; color: black;"">+</div>","","","","","","","","","","",""
"","null","image-keyboard-response","257","2.0.0","364075","p48hzab1ry2","panda","null","stimuli\STATE\USED\Sbelt1.jpg","","","","","Memory","false","null","","","",""
"","null","html-keyboard-response","258","2.0.0","364577","p48hzab1ry2","panda","null","<div style=""font-size:60px; color: black;"">+</div>","","","","","","","","","","",""
"","null","image-keyboard-response","259","2.0.0","366584","p48hzab1ry2","panda","null","stimuli\EXEMPLAR\USED\Ecalculator2.jpg","","","","","Memory","false","null","","","",""
"","null","html-keyboard-response","260","2.0.0","367086","p48hzab1ry2","panda","null","<div style=""font-size:60px; color: black;"">+</div>","","","","","","","","","","",""
"","null","image-keyboard-response","261","2.0.0","369092","p48hzab1ry2","panda","null","stimuli\STATE\USED\Spicnicbasket1.jpg","","","","","Memory","false","null","","","",""
"","null","html-keyboard-response","262","2.0.0","369594","p48hzab1ry2","panda","null","<div style=""font-size:60px; color: black;"">+</div>","","","","","","","","","","",""
"","null","image-keyboard-response","263","2.0.0","371600","p48hzab1ry2","panda","null","stimuli\STATE\USED\Sphone2.JPG","","","","","Memory","false","null","","","",""
"","null","html-keyboard-response","264","2.0.0","372104","p48hzab1ry2","panda","null","<div style=""font-size:60px; color: black;"">+</div>","","","","","","","","","","",""
"","null","image-keyboard-response","265","2.0.0","374110","p48hzab1ry2","panda","null","stimuli\STATE\USED\Shairbrush2.jpg","","","","","Memory","false","null","","","",""
"","null","html-keyboard-response","266","2.0.0","374613","p48hzab1ry2","panda","null","<div style=""font-size:60px; color: black;"">+</div>","","","","","","","","","","",""
"","null","image-keyboard-response","267","2.0.0","376620","p48hzab1ry2","panda","null","stimuli\EXEMPLAR\USED\Econe2.jpg","","","","","Memory","false","null","","","",""
"","null","html-keyboard-response","268","2.0.0","377123","p48hzab1ry2","panda","null","<div style=""font-size:60px; color: black;"">+</div>","","","","","","","","","","",""
"","null","image-keyboard-response","269","2.0.0","379128","p48hzab1ry2","panda","null","stimuli\STATE\USED\Siron1.jpg","","","","","Memory","false","null","","","",""
"","null","html-keyboard-response","270","2.0.0","379631","p48hzab1ry2","panda","null","<div style=""font-size:60px; color: black;"">+</div>","","","","","","","","","","",""
"","null","image-keyboard-response","271","2.0.0","381634","p48hzab1ry2","panda","null","stimuli\STATE\USED\Sphone2.JPG","","","","","Memory","true","null","","","",""
"","null","html-keyboard-response","272","2.0.0","382138","p48hzab1ry2","panda","null","<div style=""font-size:60px; color: black;"">+</div>","","","","","","","","","","",""
"","null","image-keyboard-response","273","2.0.0","384144","p48hzab1ry2","panda","null","stimuli\EXEMPLAR\USED\Ewineglass2.jpg","","","","","Memory","false","null","","","",""
"","null","html-keyboard-response","274","2.0.0","384647","p48hzab1ry2","panda","null","<div style=""font-size:60px; color: black;"">+</div>","","","","","","","","","","",""
"","null","image-keyboard-response","275","2.0.0","386653","p48hzab1ry2","panda","null","stimuli\STATE\USED\Scooker1.jpg","","","","","Memory","false","null","","","",""
"","null","html-keyboard-response","276","2.0.0","387157","p48hzab1ry2","panda","null","<div style=""font-size:60px; color: black;"">+</div>","","","","","","","","","","",""
"","null","image-keyboard-response","277","2.0.0","389163","p48hzab1ry2","panda","null","stimuli\STATE\USED\Sbrushes1.jpg","","","","","Memory","false","null","","","",""
"","null","html-keyboard-response","278","2.0.0","389666","p48hzab1ry2","panda","null","<div style=""font-size:60px; color: black;"">+</div>","","","","","","","","","","",""
"","null","image-keyboard-response","279","2.0.0","391673","p48hzab1ry2","panda","null","stimuli\STATE\USED\Sscales2.jpg","","","","","Memory","false","null","","","",""
"","null","html-keyboard-response","280","2.0.0","392177","p48hzab1ry2","panda","null","<div style=""font-size:60px; color: black;"">+</div>","","","","","","","","","","",""
"","null","image-keyboard-response","281","2.0.0","394184","p48hzab1ry2","panda","null","stimuli\STATE\USED\Sdishes2.JPG","","","","","Memory","false","null","","","",""
"","null","html-keyboard-response","282","2.0.0","394687","p48hzab1ry2","panda","null","<div style=""font-size:60px; color: black;"">+</div>","","","","","","","","","","",""
"","null","image-keyboard-response","283","2.0.0","396693","p48hzab1ry2","panda","null","stimuli\STATE\USED\Saccordion1.jpg","","","","","Memory","false","null","","","",""
"","null","html-keyboard-response","284","2.0.0","397197","p48hzab1ry2","panda","null","<div style=""font-size:60px; color: black;"">+</div>","","","","","","","","","","",""
"","null","image-keyboard-response","285","2.0.0","399201","p48hzab1ry2","panda","null","stimuli\STATE\USED\Sbrushes1.jpg","","","","","Memory","true","null","","","",""
"","null","html-keyboard-response","286","2.0.0","399705","p48hzab1ry2","panda","null","<div style=""font-size:60px; color: black;"">+</div>","","","","","","","","","","",""
"","null","image-keyboard-response","287","2.0.0","401711","p48hzab1ry2","panda","null","stimuli\EXEMPLAR\USED\Eballoon2.jpg","","","","","Memory","false","null","","","",""
"","null","html-keyboard-response","288","2.0.0","402213","p48hzab1ry2","panda","null","<div style=""font-size:60px; color: black;"">+</div>","","","","","","","","","","",""
"","null","image-keyboard-response","289","2.0.0","404218","p48hzab1ry2","panda","null","stimuli\EXEMPLAR\USED\Estarfish2.jpg","","","","","Memory","false","null","","","",""
"","null","html-keyboard-response","290","2.0.0","404721","p48hzab1ry2","panda","null","<div style=""font-size:60px; color: black;"">+</div>","","","","","","","","","","",""
"","null","image-keyboard-response","291","2.0.0","406727","p48hzab1ry2","panda","null","stimuli\STATE\USED\Sbrie2.JPG","","","","","Memory","false","null","","","",""
"","null","html-keyboard-response","292","2.0.0","407232","p48hzab1ry2","panda","null","<div style=""font-size:60px; color: black;"">+</div>","","","","","","","","","","",""
"","null","image-keyboard-response","293","2.0.0","409238","p48hzab1ry2","panda","null","stimuli\EXEMPLAR\USED\Ebunny1.jpg","","","","","Memory","false","null","","","",""
"","null","html-keyboard-response","294","2.0.0","409742","p48hzab1ry2","panda","null","<div style=""font-size:60px; color: black;"">+</div>","","","","","","","","","","",""
"","null","image-keyboard-response","295","2.0.0","411746","p48hzab1ry2","panda","null","stimuli\EXEMPLAR\USED\Eballoon2.jpg","","","","","Memory","true","null","","","",""
"","null","html-keyboard-response","296","2.0.0","412250","p48hzab1ry2","panda","null","<div style=""font-size:60px; color: black;"">+</div>","","","","","","","","","","",""
"","null","image-keyboard-response","297","2.0.0","414257","p48hzab1ry2","panda","null","stimuli\STATE\USED\Smetronome2.JPG","","","","","Memory","false","null","","","",""
"","null","html-keyboard-response","298","2.0.0","414760","p48hzab1ry2","panda","null","<div style=""font-size:60px; color: black;"">+</div>","","","","","","","","","","",""
"","null","image-keyboard-response","299","2.0.0","416765","p48hzab1ry2","panda","null","stimuli\STATE\USED\Sseats2.jpg","","","","","Memory","false","null","","","",""
"","null","html-keyboard-response","300","2.0.0","417268","p48hzab1ry2","panda","null","<div style=""font-size:60px; color: black;"">+</div>","","","","","","","","","","",""
"","null","image-keyboard-response","301","2.0.0","419273","p48hzab1ry2","panda","null","stimuli\EXEMPLAR\USED\Epiano2.jpg","","","","","Memory","false","null","","","",""
"","null","html-keyboard-response","302","2.0.0","419776","p48hzab1ry2","panda","null","<div style=""font-size:60px; color: black;"">+</div>","","","","","","","","","","",""
"","null","image-keyboard-response","303","2.0.0","421783","p48hzab1ry2","panda","null","stimuli\STATE\USED\Sbarnmailbox1.jpg","","","","","Memory","false","null","","","",""
"","null","html-keyboard-response","304","2.0.0","422286","p48hzab1ry2","panda","null","<div style=""font-size:60px; color: black;"">+</div>","","","","","","","","","","",""
"","null","image-keyboard-response","305","2.0.0","424292","p48hzab1ry2","panda","null","stimuli\EXEMPLAR\USED\Ewheelchair2.jpg","","","","","Memory","false","null","","","",""
"","null","html-keyboard-response","306","2.0.0","424796","p48hzab1ry2","panda","null","<div style=""font-size:60px; color: black;"">+</div>","","","","","","","","","","",""
"","null","image-keyboard-response","307","2.0.0","426803","p48hzab1ry2","panda","null","stimuli\EXEMPLAR\USED\Eframe2.jpg","","","","","Memory","false","null","","","",""
"","null","html-keyboard-response","308","2.0.0","427305","p48hzab1ry2","panda","null","<div style=""font-size:60px; color: black;"">+</div>","","","","","","","","","","",""
"","null","image-keyboard-response","309","2.0.0","429312","p48hzab1ry2","panda","null","stimuli\EXEMPLAR\USED\Eremover2.jpg","","","","","Memory","false","null","","","",""
"","null","html-keyboard-response","310","2.0.0","429814","p48hzab1ry2","panda","null","<div style=""font-size:60px; color: black;"">+</div>","","","","","","","","","","",""
"","null","image-keyboard-response","311","2.0.0","431818","p48hzab1ry2","panda","null","stimuli\STATE\USED\Sbarnmailbox1.jpg","","","","","Memory","true","null","","","",""
"","null","html-keyboard-response","312","2.0.0","432321","p48hzab1ry2","panda","null","<div style=""font-size:60px; color: black;"">+</div>","","","","","","","","","","",""
"","10879","html-button-response","313","2.0.0","443204","p48hzab1ry2","panda","0","Are you still there?","","","","","Attention Check","","","","","",""
"","null","image-keyboard-response","314","2.0.0","445209","p48hzab1ry2","panda","null","stimuli\STATE\USED\Sdishwasher2.jpg","","","","","Memory","false","null","","","",""
"","null","html-keyboard-response","315","2.0.0","445712","p48hzab1ry2","panda","null","<div style=""font-size:60px; color: black;"">+</div>","","","","","","","","","","",""
"","null","image-keyboard-response","316","2.0.0","447719","p48hzab1ry2","panda","null","stimuli\STATE\USED\Scontainer1.JPG","","","","","Memory","false","null","","","",""
"","null","html-keyboard-response","317","2.0.0","448222","p48hzab1ry2","panda","null","<div style=""font-size:60px; color: black;"">+</div>","","","","","","","","","","",""
"","null","image-keyboard-response","318","2.0.0","450229","p48hzab1ry2","panda","null","stimuli\EXEMPLAR\USED\Espraybottle1.jpg","","","","","Memory","false","null","","","",""
"","null","html-keyboard-response","319","2.0.0","450732","p48hzab1ry2","panda","null","<div style=""font-size:60px; color: black;"">+</div>","","","","","","","","","","",""
"","null","image-keyboard-response","320","2.0.0","452739","p48hzab1ry2","panda","null","stimuli\EXEMPLAR\USED\Echopsticks1.jpg","","","","","Memory","false","null","","","",""
"","null","html-keyboard-response","321","2.0.0","453242","p48hzab1ry2","panda","null","<div style=""font-size:60px; color: black;"">+</div>","","","","","","","","","","",""
"","null","image-keyboard-response","322","2.0.0","455246","p48hzab1ry2","panda","null","stimuli\STATE\USED\Sdishwasher2.jpg","","","","","Memory","true","null","","","",""
"","null","html-keyboard-response","323","2.0.0","455749","p48hzab1ry2","panda","null","<div style=""font-size:60px; color: black;"">+</div>","","","","","","","","","","",""
"","null","image-keyboard-response","324","2.0.0","457755","p48hzab1ry2","panda","null","stimuli\EXEMPLAR\USED\Epeppers2.jpg","","","","","Memory","false","null","","","",""
"","null","html-keyboard-response","325","2.0.0","458259","p48hzab1ry2","panda","null","<div style=""font-size:60px; color: black;"">+</div>","","","","","","","","","","",""
"","null","image-keyboard-response","326","2.0.0","460264","p48hzab1ry2","panda","null","stimuli\STATE\USED\Sbabytoy2.JPG","","","","","Memory","false","null","","","",""
"","null","html-keyboard-response","327","2.0.0","460767","p48hzab1ry2","panda","null","<div style=""font-size:60px; color: black;"">+</div>","","","","","","","","","","",""
"","null","image-keyboard-response","328","2.0.0","462772","p48hzab1ry2","panda","null","stimuli\EXEMPLAR\USED\Ebread1.jpg","","","","","Memory","false","null","","","",""
"","null","html-keyboard-response","329","2.0.0","463276","p48hzab1ry2","panda","null","<div style=""font-size:60px; color: black;"">+</div>","","","","","","","","","","",""
"","null","image-keyboard-response","330","2.0.0","465282","p48hzab1ry2","panda","null","stimuli\EXEMPLAR\USED\Efishbowl2.jpg","","","","","Memory","false","null","","","",""
"","null","html-keyboard-response","331","2.0.0","465785","p48hzab1ry2","panda","null","<div style=""font-size:60px; color: black;"">+</div>","","","","","","","","","","",""
"","null","image-keyboard-response","332","2.0.0","467791","p48hzab1ry2","panda","null","stimuli\EXEMPLAR\USED\Erabbit2.jpg","","","","","Memory","false","null","","","",""
"","null","html-keyboard-response","333","2.0.0","468294","p48hzab1ry2","panda","null","<div style=""font-size:60px; color: black;"">+</div>","","","","","","","","","","",""
"","null","image-keyboard-response","334","2.0.0","470300","p48hzab1ry2","panda","null","stimuli\EXEMPLAR\USED\Eguitar1.jpg","","","","","Memory","false","null","","","",""
"","null","html-keyboard-response","335","2.0.0","470803","p48hzab1ry2","panda","null","<div style=""font-size:60px; color: black;"">+</div>","","","","","","","","","","",""
"","null","image-keyboard-response","336","2.0.0","472810","p48hzab1ry2","panda","null","stimuli\EXEMPLAR\USED\Ebracelet1.jpg","","","","","Memory","false","null","","","",""
"","null","html-keyboard-response","337","2.0.0","473312","p48hzab1ry2","panda","null","<div style=""font-size:60px; color: black;"">+</div>","","","","","","","","","","",""
"","null","image-keyboard-response","338","2.0.0","475320","p48hzab1ry2","panda","null","stimuli\EXEMPLAR\USED\Elei2.jpg","","","","","Memory","false","null","","","",""
"","null","html-keyboard-response","339","2.0.0","475822","p48hzab1ry2","panda","null","<div style=""font-size:60px; color: black;"">+</div>","","","","","","","","","","",""
"","null","image-keyboard-response","340","2.0.0","477828","p48hzab1ry2","panda","null","stimuli\STATE\USED\Sskull2.jpg","","","","","Memory","false","null","","","",""
"","null","html-keyboard-response","341","2.0.0","478330","p48hzab1ry2","panda","null","<div style=""font-size:60px; color: black;"">+</div>","","","","","","","","","","",""
"","null","image-keyboard-response","342","2.0.0","480333","p48hzab1ry2","panda","null","stimuli\EXEMPLAR\USED\Eguitar1.jpg","","","","","Memory","true","null","","","",""
"","null","html-keyboard-response","343","2.0.0","480835","p48hzab1ry2","panda","null","<div style=""font-size:60px; color: black;"">+</div>","","","","","","","","","","",""
"","null","image-keyboard-response","344","2.0.0","482841","p48hzab1ry2","panda","null","stimuli\EXEMPLAR\USED\Estapler1.jpg","","","","","Memory","false","null","","","",""
"","null","html-keyboard-response","345","2.0.0","483344","p48hzab1ry2","panda","null","<div style=""font-size:60px; color: black;"">+</div>","","","","","","","","","","",""
"","null","image-keyboard-response","346","2.0.0","485351","p48hzab1ry2","panda","null","stimuli\EXEMPLAR\USED\Esunglasses1.jpg","","","","","Memory","false","null","","","",""
"","null","html-keyboard-response","347","2.0.0","485852","p48hzab1ry2","panda","null","<div style=""font-size:60px; color: black;"">+</div>","","","","","","","","","","",""
"","18656","html-keyboard-response","348","2.0.0","504510","p48hzab1ry2","panda","Enter","
          <p>In the next part of this experiment, you will see 2 images. Please select the image that you recall from the image stream.</p>
          <p>You will also rate your confidence for each image you recall.</p>
          <p>Press any key to start.</p>
        ","","","","","","","","","","",""
"","1369","html-button-response","349","2.0.0","505881","p48hzab1ry2","panda","0","Which of these items did you see before?","","","","","Test","","true","[""stimuli\\EXEMPLAR\\USED\\Eheadphones2.jpg"",""stimuli\\EXEMPLAR\\USED\\Eheadphones1.jpg""]","stimuli\EXEMPLAR\USED\Eheadphones2.jpg","stimuli\EXEMPLAR\USED\Eheadphones2.jpg",""
"","5180","image-slider-response","350","2.0.0","511064","p48hzab1ry2","panda","4","stimuli\EXEMPLAR\USED\Eheadphones2.jpg","","","","","","","","","","","3"
"","2666","html-button-response","351","2.0.0","513731","p48hzab1ry2","panda","0","Which of these items did you see before?","","","","","Test","","true","[""stimuli\\STATE\\USED\\Sdoughhands1.jpg"",""stimuli\\STATE\\USED\\Sdoughhands2.jpg""]","stimuli\STATE\USED\Sdoughhands1.jpg","stimuli\STATE\USED\Sdoughhands1.jpg",""
"","2298","image-slider-response","352","2.0.0","516031","p48hzab1ry2","panda","2","stimuli\STATE\USED\Sdoughhands1.jpg","","","","","","","","","","","3"
"","2867","html-button-response","353","2.0.0","518899","p48hzab1ry2","panda","1","Which of these items did you see before?","","","","","Test","","true","[""stimuli\\EXEMPLAR\\USED\\Etongs2.jpg"",""stimuli\\EXEMPLAR\\USED\\Etongs1.jpg""]","stimuli\EXEMPLAR\USED\Etongs1.jpg","stimuli\EXEMPLAR\USED\Etongs1.jpg",""
"","2563","image-slider-response","354","2.0.0","521463","p48hzab1ry2","panda","4","stimuli\EXEMPLAR\USED\Etongs1.jpg","","","","","","","","","","","3"
"","1651","html-button-response","355","2.0.0","523115","p48hzab1ry2","panda","0","Which of these items did you see before?","","","","","Test","","true","[""stimuli\\STATE\\USED\\Seggplant1.jpg"",""stimuli\\STATE\\USED\\Seggplant2.jpg""]","stimuli\STATE\USED\Seggplant1.jpg","stimuli\STATE\USED\Seggplant1.jpg",""
"","2482","image-slider-response","356","2.0.0","525598","p48hzab1ry2","panda","4","stimuli\STATE\USED\Seggplant1.jpg","","","","","","","","","","","3"
"","2651","html-button-response","357","2.0.0","528250","p48hzab1ry2","panda","0","Which of these items did you see before?","","","","","Test","","true","[""stimuli\\STATE\\USED\\Smetronome2.JPG"",""stimuli\\STATE\\USED\\Smetronome1.jpg""]","stimuli\STATE\USED\Smetronome2.JPG","stimuli\STATE\USED\Smetronome2.JPG",""
"","2544","image-slider-response","358","2.0.0","530796","p48hzab1ry2","panda","2","stimuli\STATE\USED\Smetronome2.JPG","","","","","","","","","","","3"
"","1684","html-button-response","359","2.0.0","532481","p48hzab1ry2","panda","0","Which of these items did you see before?","","","","","Test","","true","[""stimuli\\STATE\\USED\\Scateringtray2.jpg"",""stimuli\\STATE\\USED\\Scateringtray1.jpg""]","stimuli\STATE\USED\Scateringtray2.jpg","stimuli\STATE\USED\Scateringtray2.jpg",""
"","3566","image-slider-response","360","2.0.0","536049","p48hzab1ry2","panda","3","stimuli\STATE\USED\Scateringtray2.jpg","","","","","","","","","","","3"
"","1201","html-button-response","361","2.0.0","537251","p48hzab1ry2","panda","1","Which of these items did you see before?","","","","","Test","","true","[""stimuli\\EXEMPLAR\\USED\\Emuffin2.jpg"",""stimuli\\EXEMPLAR\\USED\\Emuffin1.jpg""]","stimuli\EXEMPLAR\USED\Emuffin1.jpg","stimuli\EXEMPLAR\USED\Emuffin1.jpg",""
"","2161","image-slider-response","362","2.0.0","539414","p48hzab1ry2","panda","5","stimuli\EXEMPLAR\USED\Emuffin1.jpg","","","","","","","","","","","3"
"","1232","html-button-response","363","2.0.0","540647","p48hzab1ry2","panda","1","Which of these items did you see before?","","","","","Test","","true","[""stimuli\\EXEMPLAR\\USED\\Eholepunch2.jpg"",""stimuli\\EXEMPLAR\\USED\\Eholepunch1.jpg""]","stimuli\EXEMPLAR\USED\Eholepunch1.jpg","stimuli\EXEMPLAR\USED\Eholepunch1.jpg",""
"","1365","image-slider-response","364","2.0.0","542014","p48hzab1ry2","panda","4","stimuli\EXEMPLAR\USED\Eholepunch1.jpg","","","","","","","","","","","3"
"","1494","html-button-response","365","2.0.0","543509","p48hzab1ry2","panda","0","Which of these items did you see before?","","","","","Test","","true","[""stimuli\\EXEMPLAR\\USED\\Elog1.jpg"",""stimuli\\EXEMPLAR\\USED\\Elog2.jpg""]","stimuli\EXEMPLAR\USED\Elog1.jpg","stimuli\EXEMPLAR\USED\Elog1.jpg",""
"","3267","image-slider-response","366","2.0.0","546778","p48hzab1ry2","panda","3","stimuli\EXEMPLAR\USED\Elog1.jpg","","","","","","","","","","","3"
"","5166","html-button-response","367","2.0.0","551946","p48hzab1ry2","panda","0","Which of these items did you see before?","","","","","Test","","true","[""stimuli\\STATE\\USED\\Sdie1.jpg"",""stimuli\\STATE\\USED\\Sdie2.jpg""]","stimuli\STATE\USED\Sdie1.jpg","stimuli\STATE\USED\Sdie1.jpg",""
"","3065","image-slider-response","368","2.0.0","555013","p48hzab1ry2","panda","4","stimuli\STATE\USED\Sdie1.jpg","","","","","","","","","","","3"
"","1678","html-button-response","369","2.0.0","556693","p48hzab1ry2","panda","1","Which of these items did you see before?","","","","","Test","","true","[""stimuli\\STATE\\USED\\Sgiftbag1.jpg"",""stimuli\\STATE\\USED\\Sgiftbag2.jpg""]","stimuli\STATE\USED\Sgiftbag2.jpg","stimuli\STATE\USED\Sgiftbag2.jpg",""
"","4649","image-slider-response","370","2.0.0","561343","p48hzab1ry2","panda","3","stimuli\STATE\USED\Sgiftbag2.jpg","","","","","","","","","","","3"
"","14127","html-button-response","371","2.0.0","575471","p48hzab1ry2","panda","1","Which of these items did you see before?","","","","","Test","","false","[""stimuli\\EXEMPLAR\\USED\\Etrain2.jpg"",""stimuli\\EXEMPLAR\\USED\\Etrain1.jpg""]","stimuli\EXEMPLAR\USED\Etrain2.jpg","stimuli\EXEMPLAR\USED\Etrain1.jpg",""
"","2295","image-slider-response","372","2.0.0","577768","p48hzab1ry2","panda","3","stimuli\EXEMPLAR\USED\Etrain1.jpg","","","","","","","","","","","3"
"","1139","html-button-response","373","2.0.0","578909","p48hzab1ry2","panda","0","Which of these items did you see before?","","","","","Test","","false","[""stimuli\\EXEMPLAR\\USED\\Ebrick1.jpg"",""stimuli\\EXEMPLAR\\USED\\Ebrick2.jpg""]","stimuli\EXEMPLAR\USED\Ebrick2.jpg","stimuli\EXEMPLAR\USED\Ebrick1.jpg",""
"","1904","image-slider-response","374","2.0.0","580814","p48hzab1ry2","panda","4","stimuli\EXEMPLAR\USED\Ebrick1.jpg","","","","","","","","","","","3"
"","1145","html-button-response","375","2.0.0","581960","p48hzab1ry2","panda","1","Which of these items did you see before?","","","","","Test","","true","[""stimuli\\EXEMPLAR\\USED\\Eicecream1.jpg"",""stimuli\\EXEMPLAR\\USED\\Eicecream2.jpg""]","stimuli\EXEMPLAR\USED\Eicecream2.jpg","stimuli\EXEMPLAR\USED\Eicecream2.jpg",""
"","1551","image-slider-response","376","2.0.0","583513","p48hzab1ry2","panda","4","stimuli\EXEMPLAR\USED\Eicecream2.jpg","","","","","","","","","","","3"
"","1664","html-button-response","377","2.0.0","585179","p48hzab1ry2","panda","1","Which of these items did you see before?","","","","","Test","","false","[""stimuli\\STATE\\USED\\Stypewriter2.jpg"",""stimuli\\STATE\\USED\\Stypewriter1.jpg""]","stimuli\STATE\USED\Stypewriter2.jpg","stimuli\STATE\USED\Stypewriter1.jpg",""
"","2101","image-slider-response","378","2.0.0","587281","p48hzab1ry2","panda","4","stimuli\STATE\USED\Stypewriter1.jpg","","","","","","","","","","","3"
"","1767","html-button-response","379","2.0.0","589049","p48hzab1ry2","panda","1","Which of these items did you see before?","","","","","Test","","false","[""stimuli\\STATE\\USED\\Sphone2.JPG"",""stimuli\\STATE\\USED\\Sphone1.JPG""]","stimuli\STATE\USED\Sphone2.JPG","stimuli\STATE\USED\Sphone1.JPG",""
"","1431","image-slider-response","380","2.0.0","590482","p48hzab1ry2","panda","4","stimuli\STATE\USED\Sphone1.JPG","","","","","","","","","","","3"
"","1600","html-button-response","381","2.0.0","592083","p48hzab1ry2","panda","1","Which of these items did you see before?","","","","","Test","","true","[""stimuli\\EXEMPLAR\\USED\\Etoyhand2.jpg"",""stimuli\\EXEMPLAR\\USED\\Etoyhand1.jpg""]","stimuli\EXEMPLAR\USED\Etoyhand1.jpg","stimuli\EXEMPLAR\USED\Etoyhand1.jpg",""
"","2747","image-slider-response","382","2.0.0","594831","p48hzab1ry2","panda","4","stimuli\EXEMPLAR\USED\Etoyhand1.jpg","","","","","","","","","","","3"
"","1956","html-button-response","383","2.0.0","596788","p48hzab1ry2","panda","1","Which of these items did you see before?","","","","","Test","","false","[""stimuli\\STATE\\USED\\Spadlock2.jpg"",""stimuli\\STATE\\USED\\Spadlock1.jpg""]","stimuli\STATE\USED\Spadlock2.jpg","stimuli\STATE\USED\Spadlock1.jpg",""
"","1572","image-slider-response","384","2.0.0","598362","p48hzab1ry2","panda","4","stimuli\STATE\USED\Spadlock1.jpg","","","","","","","","","","","3"
"","19244","html-button-response","385","2.0.0","617607","p48hzab1ry2","panda","1","Which of these items did you see before?","","","","","Test","","true","[""stimuli\\STATE\\USED\\Sapplesredbasket1.JPG"",""stimuli\\STATE\\USED\\Sapplesredbasket2.JPG""]","stimuli\STATE\USED\Sapplesredbasket2.JPG","stimuli\STATE\USED\Sapplesredbasket2.JPG",""
"","1954","image-slider-response","386","2.0.0","619564","p48hzab1ry2","panda","3","stimuli\STATE\USED\Sapplesredbasket2.JPG","","","","","","","","","","","3"
"","5200","html-button-response","387","2.0.0","624765","p48hzab1ry2","panda","1","Which of these items did you see before?","","","","","Test","","false","[""stimuli\\STATE\\USED\\Sbox2.jpg"",""stimuli\\STATE\\USED\\Sbox1.jpg""]","stimuli\STATE\USED\Sbox2.jpg","stimuli\STATE\USED\Sbox1.jpg",""
"","7310","image-slider-response","388","2.0.0","632077","p48hzab1ry2","panda","4","stimuli\STATE\USED\Sbox1.jpg","","","","","","","","","","","3"
"","1925","html-button-response","389","2.0.0","634003","p48hzab1ry2","panda","0","Which of these items did you see before?","","","","","Test","","false","[""stimuli\\STATE\\USED\\Sboxwhite1.jpg"",""stimuli\\STATE\\USED\\Sboxwhite2.jpg""]","stimuli\STATE\USED\Sboxwhite2.jpg","stimuli\STATE\USED\Sboxwhite1.jpg",""
"","3328","image-slider-response","390","2.0.0","637333","p48hzab1ry2","panda","4","stimuli\STATE\USED\Sboxwhite1.jpg","","","","","","","","","","","3"
"","2642","html-button-response","391","2.0.0","639975","p48hzab1ry2","panda","1","Which of these items did you see before?","","","","","Test","","false","[""stimuli\\STATE\\USED\\Scontainer1.JPG"",""stimuli\\STATE\\USED\\Scontainer2.JPG""]","stimuli\STATE\USED\Scontainer1.JPG","stimuli\STATE\USED\Scontainer2.JPG",""
"","2006","image-slider-response","392","2.0.0","641982","p48hzab1ry2","panda","4","stimuli\STATE\USED\Scontainer2.JPG","","","","","","","","","","","3"
"","1454","html-button-response","393","2.0.0","643438","p48hzab1ry2","panda","0","Which of these items did you see before?","","","","","Test","","false","[""stimuli\\EXEMPLAR\\USED\\Echocolatebar1.jpg"",""stimuli\\EXEMPLAR\\USED\\Echocolatebar2.jpg""]","stimuli\EXEMPLAR\USED\Echocolatebar2.jpg","stimuli\EXEMPLAR\USED\Echocolatebar1.jpg",""
"","1574","image-slider-response","394","2.0.0","645013","p48hzab1ry2","panda","4","stimuli\EXEMPLAR\USED\Echocolatebar1.jpg","","","","","","","","","","","3"
"","3766","html-button-response","395","2.0.0","648780","p48hzab1ry2","panda","0","Which of these items did you see before?","","","","","Test","","true","[""stimuli\\STATE\\USED\\Shairbrush2.jpg"",""stimuli\\STATE\\USED\\Shairbrush1.jpg""]","stimuli\STATE\USED\Shairbrush2.jpg","stimuli\STATE\USED\Shairbrush2.jpg",""
"","1648","image-slider-response","396","2.0.0","650429","p48hzab1ry2","panda","4","stimuli\STATE\USED\Shairbrush2.jpg","","","","","","","","","","","3"
"","1419","html-button-response","397","2.0.0","651849","p48hzab1ry2","panda","0","Which of these items did you see before?","","","","","Test","","true","[""stimuli\\STATE\\USED\\Sbrie2.JPG"",""stimuli\\STATE\\USED\\Sbrie1.JPG""]","stimuli\STATE\USED\Sbrie2.JPG","stimuli\STATE\USED\Sbrie2.JPG",""
"","1774","image-slider-response","398","2.0.0","653624","p48hzab1ry2","panda","4","stimuli\STATE\USED\Sbrie2.JPG","","","","","","","","","","","3"
"","1379","html-button-response","399","2.0.0","655004","p48hzab1ry2","panda","1","Which of these items did you see before?","","","","","Test","","false","[""stimuli\\STATE\\USED\\Sbabytoy2.JPG"",""stimuli\\STATE\\USED\\Sbabytoy1.JPG""]","stimuli\STATE\USED\Sbabytoy2.JPG","stimuli\STATE\USED\Sbabytoy1.JPG",""
"","2342","image-slider-response","400","2.0.0","657348","p48hzab1ry2","panda","4","stimuli\STATE\USED\Sbabytoy1.JPG","","","","","","","","","","","3"
"","2245","html-button-response","401","2.0.0","659594","p48hzab1ry2","panda","1","Which of these items did you see before?","","","","","Test","","false","[""stimuli\\STATE\\USED\\Sbooks2.JPG"",""stimuli\\STATE\\USED\\Sbooks1.JPG""]","stimuli\STATE\USED\Sbooks2.JPG","stimuli\STATE\USED\Sbooks1.JPG",""
"","2324","image-slider-response","402","2.0.0","661920","p48hzab1ry2","panda","4","stimuli\STATE\USED\Sbooks1.JPG","","","","","","","","","","","3"
"","3654","html-button-response","403","2.0.0","665575","p48hzab1ry2","panda","1","Which of these items did you see before?","","","","","Test","","false","[""stimuli\\EXEMPLAR\\USED\\Etractor2.jpg"",""stimuli\\EXEMPLAR\\USED\\Etractor1.jpg""]","stimuli\EXEMPLAR\USED\Etractor2.jpg","stimuli\EXEMPLAR\USED\Etractor1.jpg",""
"","2004","image-slider-response","404","2.0.0","667581","p48hzab1ry2","panda","4","stimuli\EXEMPLAR\USED\Etractor1.jpg","","","","","","","","","","","3"
"","1983","html-button-response","405","2.0.0","669565","p48hzab1ry2","panda","1","Which of these items did you see before?","","","","","Test","","true","[""stimuli\\STATE\\USED\\Speppers2.jpg"",""stimuli\\STATE\\USED\\Speppers1.jpg""]","stimuli\STATE\USED\Speppers1.jpg","stimuli\STATE\USED\Speppers1.jpg",""
"","1264","image-slider-response","406","2.0.0","670830","p48hzab1ry2","panda","4","stimuli\STATE\USED\Speppers1.jpg","","","","","","","","","","","3"
"","1078","html-button-response","407","2.0.0","671909","p48hzab1ry2","panda","1","Which of these items did you see before?","","","","","Test","","true","[""stimuli\\EXEMPLAR\\USED\\Epotatochips1.jpg"",""stimuli\\EXEMPLAR\\USED\\Epotatochips2.jpg""]","stimuli\EXEMPLAR\USED\Epotatochips2.jpg","stimuli\EXEMPLAR\USED\Epotatochips2.jpg",""
"","1663","image-slider-response","408","2.0.0","673574","p48hzab1ry2","panda","4","stimuli\EXEMPLAR\USED\Epotatochips2.jpg","","","","","","","","","","","3"
"","1035","html-button-response","409","2.0.0","674611","p48hzab1ry2","panda","0","Which of these items did you see before?","","","","","Test","","true","[""stimuli\\STATE\\USED\\Sgiftbox1.jpg"",""stimuli\\STATE\\USED\\Sgiftbox2.jpg""]","stimuli\STATE\USED\Sgiftbox1.jpg","stimuli\STATE\USED\Sgiftbox1.jpg",""
"","1751","image-slider-response","410","2.0.0","676364","p48hzab1ry2","panda","4","stimuli\STATE\USED\Sgiftbox1.jpg","","","","","","","","","","","3"
"","849","html-button-response","411","2.0.0","677215","p48hzab1ry2","panda","1","Which of these items did you see before?","","","","","Test","","false","[""stimuli\\EXEMPLAR\\USED\\Ebunny1.jpg"",""stimuli\\EXEMPLAR\\USED\\Ebunny2.jpg""]","stimuli\EXEMPLAR\USED\Ebunny1.jpg","stimuli\EXEMPLAR\USED\Ebunny2.jpg",""
"","1743","image-slider-response","412","2.0.0","678959","p48hzab1ry2","panda","4","stimuli\EXEMPLAR\USED\Ebunny2.jpg","","","","","","","","","","","3"
"","1321","html-button-response","413","2.0.0","680283","p48hzab1ry2","panda","1","Which of these items did you see before?","","","","","Test","","true","[""stimuli\\STATE\\USED\\Sdonut1.jpg"",""stimuli\\STATE\\USED\\Sdonut2.jpg""]","stimuli\STATE\USED\Sdonut2.jpg","stimuli\STATE\USED\Sdonut2.jpg",""
"","1431","image-slider-response","414","2.0.0","681715","p48hzab1ry2","panda","4","stimuli\STATE\USED\Sdonut2.jpg","","","","","","","","","","","3"
"","2386","html-button-response","415","2.0.0","684102","p48hzab1ry2","panda","1","Which of these items did you see before?","","","","","Test","","false","[""stimuli\\STATE\\USED\\Ssweater2.jpg"",""stimuli\\STATE\\USED\\Ssweater1.jpg""]","stimuli\STATE\USED\Ssweater2.jpg","stimuli\STATE\USED\Ssweater1.jpg",""
"","1558","image-slider-response","416","2.0.0","685661","p48hzab1ry2","panda","4","stimuli\STATE\USED\Ssweater1.jpg","","","","","","","","","","","3"
"","6440","html-button-response","417","2.0.0","692103","p48hzab1ry2","panda","0","Which of these items did you see before?","","","","","Test","","false","[""stimuli\\EXEMPLAR\\USED\\Eteapot1.JPG"",""stimuli\\EXEMPLAR\\USED\\Eteapot2.JPG""]","stimuli\EXEMPLAR\USED\Eteapot2.JPG","stimuli\EXEMPLAR\USED\Eteapot1.JPG",""
"","3235","image-slider-response","418","2.0.0","695339","p48hzab1ry2","panda","3","stimuli\EXEMPLAR\USED\Eteapot1.JPG","","","","","","","","","","","3"
"","1490","html-button-response","419","2.0.0","696831","p48hzab1ry2","panda","1","Which of these items did you see before?","","","","","Test","","false","[""stimuli\\EXEMPLAR\\USED\\Etoyplane2.jpg"",""stimuli\\EXEMPLAR\\USED\\Etoyplane1.jpg""]","stimuli\EXEMPLAR\USED\Etoyplane2.jpg","stimuli\EXEMPLAR\USED\Etoyplane1.jpg",""
"","2153","image-slider-response","420","2.0.0","698985","p48hzab1ry2","panda","3","stimuli\EXEMPLAR\USED\Etoyplane1.jpg","","","","","","","","","","","3"
"","2051","html-button-response","421","2.0.0","701037","p48hzab1ry2","panda","1","Which of these items did you see before?","","","","","Test","","false","[""stimuli\\EXEMPLAR\\USED\\Eelectricbass1.jpg"",""stimuli\\EXEMPLAR\\USED\\Eelectricbass2.jpg""]","stimuli\EXEMPLAR\USED\Eelectricbass1.jpg","stimuli\EXEMPLAR\USED\Eelectricbass2.jpg",""
"","3023","image-slider-response","422","2.0.0","704063","p48hzab1ry2","panda","3","stimuli\EXEMPLAR\USED\Eelectricbass2.jpg","","","","","","","","","","","3"
"","3245","html-button-response","423","2.0.0","707309","p48hzab1ry2","panda","0","Which of these items did you see before?","","","","","Test","","false","[""stimuli\\STATE\\USED\\Swaffleiron1.jpg"",""stimuli\\STATE\\USED\\Swaffleiron2.jpg""]","stimuli\STATE\USED\Swaffleiron2.jpg","stimuli\STATE\USED\Swaffleiron1.jpg",""
"","1605","image-slider-response","424","2.0.0","708915","p48hzab1ry2","panda","3","stimuli\STATE\USED\Swaffleiron1.jpg","","","","","","","","","","","3"
"","2480","html-button-response","425","2.0.0","711396","p48hzab1ry2","panda","1","Which of these items did you see before?","","","","","Test","","true","[""stimuli\\EXEMPLAR\\USED\\Ecake2.jpg"",""stimuli\\EXEMPLAR\\USED\\Ecake1.jpg""]","stimuli\EXEMPLAR\USED\Ecake1.jpg","stimuli\EXEMPLAR\USED\Ecake1.jpg",""
"","1516","image-slider-response","426","2.0.0","712913","p48hzab1ry2","panda","4","stimuli\EXEMPLAR\USED\Ecake1.jpg","","","","","","","","","","","3"
"","1491","html-button-response","427","2.0.0","714405","p48hzab1ry2","panda","1","Which of these items did you see before?","","","","","Test","","false","[""stimuli\\EXEMPLAR\\USED\\Esantahat1.jpg"",""stimuli\\EXEMPLAR\\USED\\Esantahat2.jpg""]","stimuli\EXEMPLAR\USED\Esantahat1.jpg","stimuli\EXEMPLAR\USED\Esantahat2.jpg",""
"","1273","image-slider-response","428","2.0.0","715681","p48hzab1ry2","panda","4","stimuli\EXEMPLAR\USED\Esantahat2.jpg","","","","","","","","","","","3"
"","900","html-button-response","429","2.0.0","716582","p48hzab1ry2","panda","1","Which of these items did you see before?","","","","","Test","","false","[""stimuli\\EXEMPLAR\\USED\\Ebread1.jpg"",""stimuli\\EXEMPLAR\\USED\\Ebread2.jpg""]","stimuli\EXEMPLAR\USED\Ebread1.jpg","stimuli\EXEMPLAR\USED\Ebread2.jpg",""
"","1421","image-slider-response","430","2.0.0","718004","p48hzab1ry2","panda","4","stimuli\EXEMPLAR\USED\Ebread2.jpg","","","","","","","","","","","3"
"","1785","html-button-response","431","2.0.0","719791","p48hzab1ry2","panda","0","Which of these items did you see before?","","","","","Test","","true","[""stimuli\\STATE\\USED\\Sbrushes1.jpg"",""stimuli\\STATE\\USED\\Sbrushes2.jpg""]","stimuli\STATE\USED\Sbrushes1.jpg","stimuli\STATE\USED\Sbrushes1.jpg",""
"","2725","image-slider-response","432","2.0.0","722519","p48hzab1ry2","panda","3","stimuli\STATE\USED\Sbrushes1.jpg","","","","","","","","","","","3"
"","1309","html-button-response","433","2.0.0","723829","p48hzab1ry2","panda","1","Which of these items did you see before?","","","","","Test","","false","[""stimuli\\STATE\\USED\\Schinesefoodbox1.jpg"",""stimuli\\STATE\\USED\\Schinesefoodbox2.jpg""]","stimuli\STATE\USED\Schinesefoodbox1.jpg","stimuli\STATE\USED\Schinesefoodbox2.jpg",""
"","1767","image-slider-response","434","2.0.0","725597","p48hzab1ry2","panda","3","stimuli\STATE\USED\Schinesefoodbox2.jpg","","","","","","","","","","","3"
"","1198","html-button-response","435","2.0.0","726797","p48hzab1ry2","panda","1","Which of these items did you see before?","","","","","Test","","true","[""stimuli\\EXEMPLAR\\USED\\Esuitcase2.jpg"",""stimuli\\EXEMPLAR\\USED\\Esuitcase1.jpg""]","stimuli\EXEMPLAR\USED\Esuitcase1.jpg","stimuli\EXEMPLAR\USED\Esuitcase1.jpg",""
"","1600","image-slider-response","436","2.0.0","728398","p48hzab1ry2","panda","3","stimuli\EXEMPLAR\USED\Esuitcase1.jpg","","","","","","","","","","","3"
"","1994","html-button-response","437","2.0.0","730394","p48hzab1ry2","panda","0","Which of these items did you see before?","","","","","Test","","false","[""stimuli\\EXEMPLAR\\USED\\Eguitar2.jpg"",""stimuli\\EXEMPLAR\\USED\\Eguitar1.jpg""]","stimuli\EXEMPLAR\USED\Eguitar1.jpg","stimuli\EXEMPLAR\USED\Eguitar2.jpg",""
"","2099","image-slider-response","438","2.0.0","732495","p48hzab1ry2","panda","4","stimuli\EXEMPLAR\USED\Eguitar2.jpg","","","","","","","","","","","3"
"","958","html-button-response","439","2.0.0","733454","p48hzab1ry2","panda","1","Which of these items did you see before?","","","","","Test","","false","[""stimuli\\EXEMPLAR\\USED\\Epliers2.jpg"",""stimuli\\EXEMPLAR\\USED\\Epliers1.jpg""]","stimuli\EXEMPLAR\USED\Epliers2.jpg","stimuli\EXEMPLAR\USED\Epliers1.jpg",""
"","1530","image-slider-response","440","2.0.0","734985","p48hzab1ry2","panda","4","stimuli\EXEMPLAR\USED\Epliers1.jpg","","","","","","","","","","","3"
"","5501","html-button-response","441","2.0.0","740487","p48hzab1ry2","panda","1","Which of these items did you see before?","","","","","Test","","true","[""stimuli\\EXEMPLAR\\USED\\Etoywrench2.jpg"",""stimuli\\EXEMPLAR\\USED\\Etoywrench1.jpg""]","stimuli\EXEMPLAR\USED\Etoywrench1.jpg","stimuli\EXEMPLAR\USED\Etoywrench1.jpg",""
"","3734","image-slider-response","442","2.0.0","744223","p48hzab1ry2","panda","3","stimuli\EXEMPLAR\USED\Etoywrench1.jpg","","","","","","","","","","","3"
"","9569","html-button-response","443","2.0.0","753793","p48hzab1ry2","panda","1","Which of these items did you see before?","","","","","Test","","false","[""stimuli\\EXEMPLAR\\USED\\Erabbit2.jpg"",""stimuli\\EXEMPLAR\\USED\\Erabbit1.jpg""]","stimuli\EXEMPLAR\USED\Erabbit2.jpg","stimuli\EXEMPLAR\USED\Erabbit1.jpg",""
"","2115","image-slider-response","444","2.0.0","755909","p48hzab1ry2","panda","3","stimuli\EXEMPLAR\USED\Erabbit1.jpg","","","","","","","","","","","3"
"","2251","html-button-response","445","2.0.0","758161","p48hzab1ry2","panda","1","Which of these items did you see before?","","","","","Test","","true","[""stimuli\\EXEMPLAR\\USED\\Ebonzai2.jpg"",""stimuli\\EXEMPLAR\\USED\\Ebonzai1.jpg""]","stimuli\EXEMPLAR\USED\Ebonzai1.jpg","stimuli\EXEMPLAR\USED\Ebonzai1.jpg",""
"","2245","image-slider-response","446","2.0.0","760408","p48hzab1ry2","panda","3","stimuli\EXEMPLAR\USED\Ebonzai1.jpg","","","","","","","","","","","3"
"","2324","html-button-response","447","2.0.0","762733","p48hzab1ry2","panda","1","Which of these items did you see before?","","","","","Test","","true","[""stimuli\\STATE\\USED\\Stiger2.jpg"",""stimuli\\STATE\\USED\\Stiger1.jpg""]","stimuli\STATE\USED\Stiger1.jpg","stimuli\STATE\USED\Stiger1.jpg",""
"","1680","image-slider-response","448","2.0.0","764415","p48hzab1ry2","panda","4","stimuli\STATE\USED\Stiger1.jpg","","","","","","","","","","","3"
"","23584","survey-text","449","2.0.0","788001","p48hzab1ry2","panda","{""experiment_purpose"":""Memory test"",""Q1"":""Food and animals in particular and colors"",""technical_issues"":""no""}","","","","","","","","","","","",""
