"success","rt","trial_type","trial_index","plugin_version","time_elapsed","random_id","participant","response","stimulus","timeout","failed_images","failed_audio","failed_video","trial_phase","repeated","correct","choice_images","correct_image","choice","slider_start"
"true","788","fullscreen","0","2.0.0","1799","p5lyc28scvl","moose","","","","","","","","","","","","",""
"","1883","survey-text","1","2.0.0","3688","p5lyc28scvl","moose","{""participant_id"":""moose""}","","","","","","","","","","","",""
"","921","html-keyboard-response","2","2.0.0","4611","p5lyc28scvl","moose"," ","<p>Welcome to the Massive Memory Experiment. Press any key to move on. </p>","","","","","","","","","","",""
"","21393","html-keyboard-response","3","2.0.0","26005","p5lyc28scvl","moose"," ","
      <div style='width:900px;margin: auto;'><p>In the first section you will see a stream of images, with fixation crosses in between each image.</p>
      <p>Each image will remain on screen for 2 seconds. Your job is to detect images that you have seen before within the experiment. Whenever you see an image that you have seen previously <b>at any point in the stream of images</b>, press the spacebar.</p>
      <p>We will let you know if you have correctly or falsely clicked the spacebar on an image by changing the color of the fixation cross.</p>
      <p>If you press the spacebar correctly (the image really did appear earlier), the fixation cross will turn green. If you pressed the spacebar incorrectly, the fixation cross will turn red.</p>
      <p>Please watch carefully to detect the images that show up again!</p>
      <p>Press any key to start.</p></div>
    ","","","","","","","","","","",""
"true","","preload","4","2.0.0","30442","p5lyc28scvl","moose","","","false","[]","[]","[]","","","","","","",""
"","null","image-keyboard-response","5","2.0.0","32452","p5lyc28scvl","moose","null","stimuli\EXEMPLAR\USED\Ehelmet2.jpg","","","","","Memory","false","null","","","",""
"","null","html-keyboard-response","6","2.0.0","32970","p5lyc28scvl","moose","null","<div style=""font-size:60px; color: black;"">+</div>","","","","","","","","","","",""
"","null","image-keyboard-response","7","2.0.0","34975","p5lyc28scvl","moose","null","stimuli\STATE\USED\Swaffleiron2.jpg","","","","","Memory","false","null","","","",""
"","null","html-keyboard-response","8","2.0.0","35480","p5lyc28scvl","moose","null","<div style=""font-size:60px; color: black;"">+</div>","","","","","","","","","","",""
"","null","image-keyboard-response","9","2.0.0","37490","p5lyc28scvl","moose","null","stimuli\STATE\USED\Saccordionsmall2.JPG","","","","","Memory","false","null","","","",""
"","null","html-keyboard-response","10","2.0.0","37999","p5lyc28scvl","moose","null","<div style=""font-size:60px; color: black;"">+</div>","","","","","","","","","","",""
"","null","image-keyboard-response","11","2.0.0","40017","p5lyc28scvl","moose","null","stimuli\EXEMPLAR\USED\Efolder1.jpg","","","","","Memory","false","null","","","",""
"","null","html-keyboard-response","12","2.0.0","40526","p5lyc28scvl","moose","null","<div style=""font-size:60px; color: black;"">+</div>","","","","","","","","","","",""
"","null","image-keyboard-response","13","2.0.0","42541","p5lyc28scvl","moose","null","stimuli\EXEMPLAR\USED\Ebunny2.jpg","","","","","Memory","false","null","","","",""
"","null","html-keyboard-response","14","2.0.0","43055","p5lyc28scvl","moose","null","<div style=""font-size:60px; color: black;"">+</div>","","","","","","","","","","",""
"","null","image-keyboard-response","15","2.0.0","45058","p5lyc28scvl","moose","null","stimuli\STATE\USED\Snapkins1.jpg","","","","","Memory","false","null","","","",""
"","null","html-keyboard-response","16","2.0.0","45569","p5lyc28scvl","moose","null","<div style=""font-size:60px; color: black;"">+</div>","","","","","","","","","","",""
"","null","image-keyboard-response","17","2.0.0","47584","p5lyc28scvl","moose","null","stimuli\STATE\USED\Saccordionsmall2.JPG","","","","","Memory","true","null","","","",""
"","null","html-keyboard-response","18","2.0.0","48094","p5lyc28scvl","moose","null","<div style=""font-size:60px; color: black;"">+</div>","","","","","","","","","","",""
"","null","image-keyboard-response","19","2.0.0","50112","p5lyc28scvl","moose","null","stimuli\EXEMPLAR\USED\Ehotairballoon1.jpg","","","","","Memory","false","null","","","",""
"","null","html-keyboard-response","20","2.0.0","50621","p5lyc28scvl","moose","null","<div style=""font-size:60px; color: black;"">+</div>","","","","","","","","","","",""
"","null","image-keyboard-response","21","2.0.0","52632","p5lyc28scvl","moose","null","stimuli\STATE\USED\Speppers2.jpg","","","","","Memory","false","null","","","",""
"","null","html-keyboard-response","22","2.0.0","53138","p5lyc28scvl","moose","null","<div style=""font-size:60px; color: black;"">+</div>","","","","","","","","","","",""
"","null","image-keyboard-response","23","2.0.0","55152","p5lyc28scvl","moose","null","stimuli\EXEMPLAR\USED\Esantahat1.jpg","","","","","Memory","false","null","","","",""
"","null","html-keyboard-response","24","2.0.0","55667","p5lyc28scvl","moose","null","<div style=""font-size:60px; color: black;"">+</div>","","","","","","","","","","",""
"","null","image-keyboard-response","25","2.0.0","57672","p5lyc28scvl","moose","null","stimuli\EXEMPLAR\USED\Ecamera2.jpg","","","","","Memory","false","null","","","",""
"","null","html-keyboard-response","26","2.0.0","58178","p5lyc28scvl","moose","null","<div style=""font-size:60px; color: black;"">+</div>","","","","","","","","","","",""
"","null","image-keyboard-response","27","2.0.0","60181","p5lyc28scvl","moose","null","stimuli\EXEMPLAR\USED\Etoyplane1.jpg","","","","","Memory","false","null","","","",""
"","null","html-keyboard-response","28","2.0.0","60689","p5lyc28scvl","moose","null","<div style=""font-size:60px; color: black;"">+</div>","","","","","","","","","","",""
"","820","image-keyboard-response","29","2.0.0","62708","p5lyc28scvl","moose"," ","stimuli\STATE\USED\Speppers2.jpg","","","","","Memory","true","true","","","",""
"","null","html-keyboard-response","30","2.0.0","63223","p5lyc28scvl","moose","null","<div style=""font-size:60px; color: green;"">+</div>","","","","","","","","","","",""
"","null","image-keyboard-response","31","2.0.0","65232","p5lyc28scvl","moose","null","stimuli\STATE\USED\Spatiotable1.jpg","","","","","Memory","false","null","","","",""
"","null","html-keyboard-response","32","2.0.0","65752","p5lyc28scvl","moose","null","<div style=""font-size:60px; color: black;"">+</div>","","","","","","","","","","",""
"","null","image-keyboard-response","33","2.0.0","67763","p5lyc28scvl","moose","null","stimuli\EXEMPLAR\USED\Eremover2.jpg","","","","","Memory","false","null","","","",""
"","null","html-keyboard-response","34","2.0.0","68266","p5lyc28scvl","moose","null","<div style=""font-size:60px; color: black;"">+</div>","","","","","","","","","","",""
"","null","image-keyboard-response","35","2.0.0","70280","p5lyc28scvl","moose","null","stimuli\STATE\USED\Sjuiceglass2.JPG","","","","","Memory","false","null","","","",""
"","null","html-keyboard-response","36","2.0.0","70795","p5lyc28scvl","moose","null","<div style=""font-size:60px; color: black;"">+</div>","","","","","","","","","","",""
"","null","image-keyboard-response","37","2.0.0","72802","p5lyc28scvl","moose","null","stimuli\EXEMPLAR\USED\Estapler2.jpg","","","","","Memory","false","null","","","",""
"","null","html-keyboard-response","38","2.0.0","73307","p5lyc28scvl","moose","null","<div style=""font-size:60px; color: black;"">+</div>","","","","","","","","","","",""
"","null","image-keyboard-response","39","2.0.0","75321","p5lyc28scvl","moose","null","stimuli\STATE\USED\Spestle2.jpg","","","","","Memory","false","null","","","",""
"","null","html-keyboard-response","40","2.0.0","75838","p5lyc28scvl","moose","null","<div style=""font-size:60px; color: black;"">+</div>","","","","","","","","","","",""
"","null","image-keyboard-response","41","2.0.0","77842","p5lyc28scvl","moose","null","stimuli\STATE\USED\Sdresser2.jpg","","","","","Memory","false","null","","","",""
"","null","html-keyboard-response","42","2.0.0","78353","p5lyc28scvl","moose","null","<div style=""font-size:60px; color: black;"">+</div>","","","","","","","","","","",""
"","null","image-keyboard-response","43","2.0.0","80367","p5lyc28scvl","moose","null","stimuli\EXEMPLAR\USED\Eguitar1.jpg","","","","","Memory","false","null","","","",""
"","null","html-keyboard-response","44","2.0.0","80881","p5lyc28scvl","moose","null","<div style=""font-size:60px; color: black;"">+</div>","","","","","","","","","","",""
"","null","image-keyboard-response","45","2.0.0","82885","p5lyc28scvl","moose","null","stimuli\EXEMPLAR\USED\Etrowel1.jpg","","","","","Memory","false","null","","","",""
"","null","html-keyboard-response","46","2.0.0","83394","p5lyc28scvl","moose","null","<div style=""font-size:60px; color: black;"">+</div>","","","","","","","","","","",""
"","792","image-keyboard-response","47","2.0.0","85399","p5lyc28scvl","moose"," ","stimuli\STATE\USED\Spestle2.jpg","","","","","Memory","true","true","","","",""
"","null","html-keyboard-response","48","2.0.0","85908","p5lyc28scvl","moose","null","<div style=""font-size:60px; color: green;"">+</div>","","","","","","","","","","",""
"","null","image-keyboard-response","49","2.0.0","87922","p5lyc28scvl","moose","null","stimuli\STATE\USED\Sbriefcasemetal2.JPG","","","","","Memory","false","null","","","",""
"","null","html-keyboard-response","50","2.0.0","88429","p5lyc28scvl","moose","null","<div style=""font-size:60px; color: black;"">+</div>","","","","","","","","","","",""
"","null","image-keyboard-response","51","2.0.0","90438","p5lyc28scvl","moose","null","stimuli\STATE\USED\Ssweater1.jpg","","","","","Memory","false","null","","","",""
"","null","html-keyboard-response","52","2.0.0","90942","p5lyc28scvl","moose","null","<div style=""font-size:60px; color: black;"">+</div>","","","","","","","","","","",""
"","null","image-keyboard-response","53","2.0.0","92949","p5lyc28scvl","moose","null","stimuli\STATE\USED\Spotpan1.JPG","","","","","Memory","false","null","","","",""
"","null","html-keyboard-response","54","2.0.0","93455","p5lyc28scvl","moose","null","<div style=""font-size:60px; color: black;"">+</div>","","","","","","","","","","",""
"","null","image-keyboard-response","55","2.0.0","95464","p5lyc28scvl","moose","null","stimuli\EXEMPLAR\USED\Epotatochips1.jpg","","","","","Memory","false","null","","","",""
"","null","html-keyboard-response","56","2.0.0","95975","p5lyc28scvl","moose","null","<div style=""font-size:60px; color: black;"">+</div>","","","","","","","","","","",""
"","null","image-keyboard-response","57","2.0.0","97983","p5lyc28scvl","moose","null","stimuli\EXEMPLAR\USED\Eglobe2.jpg","","","","","Memory","false","null","","","",""
"","null","html-keyboard-response","58","2.0.0","98495","p5lyc28scvl","moose","null","<div style=""font-size:60px; color: black;"">+</div>","","","","","","","","","","",""
"","746","image-keyboard-response","59","2.0.0","100505","p5lyc28scvl","moose"," ","stimuli\STATE\USED\Ssweater1.jpg","","","","","Memory","true","true","","","",""
"","null","html-keyboard-response","60","2.0.0","101020","p5lyc28scvl","moose","null","<div style=""font-size:60px; color: green;"">+</div>","","","","","","","","","","",""
"","null","image-keyboard-response","61","2.0.0","103037","p5lyc28scvl","moose","null","stimuli\STATE\USED\Sseatbelt2.jpg","","","","","Memory","false","null","","","",""
"","null","html-keyboard-response","62","2.0.0","103550","p5lyc28scvl","moose","null","<div style=""font-size:60px; color: black;"">+</div>","","","","","","","","","","",""
"","null","image-keyboard-response","63","2.0.0","105558","p5lyc28scvl","moose","null","stimuli\STATE\USED\Srainbowslice2.jpg","","","","","Memory","false","null","","","",""
"","null","html-keyboard-response","64","2.0.0","106068","p5lyc28scvl","moose","null","<div style=""font-size:60px; color: black;"">+</div>","","","","","","","","","","",""
"","null","image-keyboard-response","65","2.0.0","108073","p5lyc28scvl","moose","null","stimuli\STATE\USED\Sschoolbag1.JPG","","","","","Memory","false","null","","","",""
"","null","html-keyboard-response","66","2.0.0","108578","p5lyc28scvl","moose","null","<div style=""font-size:60px; color: black;"">+</div>","","","","","","","","","","",""
"","null","image-keyboard-response","67","2.0.0","110581","p5lyc28scvl","moose","null","stimuli\EXEMPLAR\USED\Eheadphones2.jpg","","","","","Memory","false","null","","","",""
"","null","html-keyboard-response","68","2.0.0","111092","p5lyc28scvl","moose","null","<div style=""font-size:60px; color: black;"">+</div>","","","","","","","","","","",""
"","null","image-keyboard-response","69","2.0.0","113103","p5lyc28scvl","moose","null","stimuli\STATE\USED\Scoffeemaker2.JPG","","","","","Memory","false","null","","","",""
"","null","html-keyboard-response","70","2.0.0","113617","p5lyc28scvl","moose","null","<div style=""font-size:60px; color: black;"">+</div>","","","","","","","","","","",""
"","690","image-keyboard-response","71","2.0.0","115629","p5lyc28scvl","moose"," ","stimuli\STATE\USED\Srainbowslice2.jpg","","","","","Memory","true","true","","","",""
"","null","html-keyboard-response","72","2.0.0","116140","p5lyc28scvl","moose","null","<div style=""font-size:60px; color: green;"">+</div>","","","","","","","","","","",""
"","null","image-keyboard-response","73","2.0.0","118156","p5lyc28scvl","moose","null","stimuli\EXEMPLAR\USED\Enozzle2.jpg","","","","","Memory","false","null","","","",""
"","null","html-keyboard-response","74","2.0.0","118659","p5lyc28scvl","moose","null","<div style=""font-size:60px; color: black;"">+</div>","","","","","","","","","","",""
"","null","image-keyboard-response","75","2.0.0","120673","p5lyc28scvl","moose","null","stimuli\STATE\USED\Sapplesgreenbasket1.jpg","","","","","Memory","false","null","","","",""
"","null","html-keyboard-response","76","2.0.0","121186","p5lyc28scvl","moose","null","<div style=""font-size:60px; color: black;"">+</div>","","","","","","","","","","",""
"","null","image-keyboard-response","77","2.0.0","123192","p5lyc28scvl","moose","null","stimuli\EXEMPLAR\USED\Etractor1.jpg","","","","","Memory","false","null","","","",""
"","null","html-keyboard-response","78","2.0.0","123701","p5lyc28scvl","moose","null","<div style=""font-size:60px; color: black;"">+</div>","","","","","","","","","","",""
"","null","image-keyboard-response","79","2.0.0","125719","p5lyc28scvl","moose","null","stimuli\STATE\USED\Sscales2.jpg","","","","","Memory","false","null","","","",""
"","null","html-keyboard-response","80","2.0.0","126223","p5lyc28scvl","moose","null","<div style=""font-size:60px; color: black;"">+</div>","","","","","","","","","","",""
"","null","image-keyboard-response","81","2.0.0","128237","p5lyc28scvl","moose","null","stimuli\EXEMPLAR\USED\Eladder1.jpg","","","","","Memory","false","null","","","",""
"","null","html-keyboard-response","82","2.0.0","128754","p5lyc28scvl","moose","null","<div style=""font-size:60px; color: black;"">+</div>","","","","","","","","","","",""
"","765","image-keyboard-response","83","2.0.0","130770","p5lyc28scvl","moose"," ","stimuli\STATE\USED\Sapplesgreenbasket1.jpg","","","","","Memory","true","true","","","",""
"","null","html-keyboard-response","84","2.0.0","131274","p5lyc28scvl","moose","null","<div style=""font-size:60px; color: green;"">+</div>","","","","","","","","","","",""
"","null","image-keyboard-response","85","2.0.0","133279","p5lyc28scvl","moose","null","stimuli\STATE\USED\Slaptop1.JPG","","","","","Memory","false","null","","","",""
"","null","html-keyboard-response","86","2.0.0","133795","p5lyc28scvl","moose","null","<div style=""font-size:60px; color: black;"">+</div>","","","","","","","","","","",""
"","null","image-keyboard-response","87","2.0.0","135807","p5lyc28scvl","moose","null","stimuli\STATE\USED\Spadlock1.jpg","","","","","Memory","false","null","","","",""
"","null","html-keyboard-response","88","2.0.0","136308","p5lyc28scvl","moose","null","<div style=""font-size:60px; color: black;"">+</div>","","","","","","","","","","",""
"","null","image-keyboard-response","89","2.0.0","138310","p5lyc28scvl","moose","null","stimuli\STATE\USED\Sbrushes1.jpg","","","","","Memory","false","null","","","",""
"","null","html-keyboard-response","90","2.0.0","138812","p5lyc28scvl","moose","null","<div style=""font-size:60px; color: black;"">+</div>","","","","","","","","","","",""
"","null","image-keyboard-response","91","2.0.0","140818","p5lyc28scvl","moose","null","stimuli\STATE\USED\Spumpkinpie1.jpg","","","","","Memory","false","null","","","",""
"","null","html-keyboard-response","92","2.0.0","141335","p5lyc28scvl","moose","null","<div style=""font-size:60px; color: black;"">+</div>","","","","","","","","","","",""
"","null","image-keyboard-response","93","2.0.0","143352","p5lyc28scvl","moose","null","stimuli\EXEMPLAR\USED\Eicecream1.jpg","","","","","Memory","false","null","","","",""
"","null","html-keyboard-response","94","2.0.0","143868","p5lyc28scvl","moose","null","<div style=""font-size:60px; color: black;"">+</div>","","","","","","","","","","",""
"","null","image-keyboard-response","95","2.0.0","145876","p5lyc28scvl","moose","null","stimuli\STATE\USED\Shandsign2.JPG","","","","","Memory","false","null","","","",""
"","null","html-keyboard-response","96","2.0.0","146385","p5lyc28scvl","moose","null","<div style=""font-size:60px; color: black;"">+</div>","","","","","","","","","","",""
"","null","image-keyboard-response","97","2.0.0","148398","p5lyc28scvl","moose","null","stimuli\STATE\USED\Sdishwasher2.jpg","","","","","Memory","false","null","","","",""
"","null","html-keyboard-response","98","2.0.0","148907","p5lyc28scvl","moose","null","<div style=""font-size:60px; color: black;"">+</div>","","","","","","","","","","",""
"","null","image-keyboard-response","99","2.0.0","150909","p5lyc28scvl","moose","null","stimuli\STATE\USED\Spie2.JPG","","","","","Memory","false","null","","","",""
"","null","html-keyboard-response","100","2.0.0","151417","p5lyc28scvl","moose","null","<div style=""font-size:60px; color: black;"">+</div>","","","","","","","","","","",""
"","845","image-keyboard-response","101","2.0.0","153435","p5lyc28scvl","moose"," ","stimuli\EXEMPLAR\USED\Eicecream1.jpg","","","","","Memory","true","true","","","",""
"","null","html-keyboard-response","102","2.0.0","153938","p5lyc28scvl","moose","null","<div style=""font-size:60px; color: green;"">+</div>","","","","","","","","","","",""
"","null","image-keyboard-response","103","2.0.0","155944","p5lyc28scvl","moose","null","stimuli\STATE\USED\Sgiftbag1.jpg","","","","","Memory","false","null","","","",""
"","null","html-keyboard-response","104","2.0.0","156447","p5lyc28scvl","moose","null","<div style=""font-size:60px; color: black;"">+</div>","","","","","","","","","","",""
"","null","image-keyboard-response","105","2.0.0","158464","p5lyc28scvl","moose","null","stimuli\EXEMPLAR\USED\Eswimsuit2.jpg","","","","","Memory","false","null","","","",""
"","null","html-keyboard-response","106","2.0.0","158980","p5lyc28scvl","moose","null","<div style=""font-size:60px; color: black;"">+</div>","","","","","","","","","","",""
"","1452","html-button-response","107","2.0.0","160434","p5lyc28scvl","moose","0","Are you still there?","","","","","Attention Check","","","","","",""
"","null","image-keyboard-response","108","2.0.0","162441","p5lyc28scvl","moose","null","stimuli\STATE\USED\Scooker2.jpg","","","","","Memory","false","null","","","",""
"","null","html-keyboard-response","109","2.0.0","162951","p5lyc28scvl","moose","null","<div style=""font-size:60px; color: black;"">+</div>","","","","","","","","","","",""
"","null","image-keyboard-response","110","2.0.0","164960","p5lyc28scvl","moose","null","stimuli\STATE\USED\Sumbrella2.jpg","","","","","Memory","false","null","","","",""
"","null","html-keyboard-response","111","2.0.0","165471","p5lyc28scvl","moose","null","<div style=""font-size:60px; color: black;"">+</div>","","","","","","","","","","",""
"","null","image-keyboard-response","112","2.0.0","167476","p5lyc28scvl","moose","null","stimuli\EXEMPLAR\USED\Ebonzai2.jpg","","","","","Memory","false","null","","","",""
"","null","html-keyboard-response","113","2.0.0","167983","p5lyc28scvl","moose","null","<div style=""font-size:60px; color: black;"">+</div>","","","","","","","","","","",""
"","null","image-keyboard-response","114","2.0.0","169995","p5lyc28scvl","moose","null","stimuli\STATE\USED\Sdishes1.JPG","","","","","Memory","false","null","","","",""
"","null","html-keyboard-response","115","2.0.0","170498","p5lyc28scvl","moose","null","<div style=""font-size:60px; color: black;"">+</div>","","","","","","","","","","",""
"","null","image-keyboard-response","116","2.0.0","172505","p5lyc28scvl","moose","null","stimuli\STATE\USED\Sgiftbox2.jpg","","","","","Memory","false","null","","","",""
"","null","html-keyboard-response","117","2.0.0","173012","p5lyc28scvl","moose","null","<div style=""font-size:60px; color: black;"">+</div>","","","","","","","","","","",""
"","null","image-keyboard-response","118","2.0.0","175015","p5lyc28scvl","moose","null","stimuli\EXEMPLAR\USED\Estarfish1.jpg","","","","","Memory","false","null","","","",""
"","null","html-keyboard-response","119","2.0.0","175518","p5lyc28scvl","moose","null","<div style=""font-size:60px; color: black;"">+</div>","","","","","","","","","","",""
"","null","image-keyboard-response","120","2.0.0","177528","p5lyc28scvl","moose","null","stimuli\EXEMPLAR\USED\Eframe2.jpg","","","","","Memory","false","null","","","",""
"","null","html-keyboard-response","121","2.0.0","178031","p5lyc28scvl","moose","null","<div style=""font-size:60px; color: black;"">+</div>","","","","","","","","","","",""
"","null","image-keyboard-response","122","2.0.0","180049","p5lyc28scvl","moose","null","stimuli\STATE\USED\Stypewriter2.jpg","","","","","Memory","false","null","","","",""
"","null","html-keyboard-response","123","2.0.0","180550","p5lyc28scvl","moose","null","<div style=""font-size:60px; color: black;"">+</div>","","","","","","","","","","",""
"","887","image-keyboard-response","124","2.0.0","182558","p5lyc28scvl","moose"," ","stimuli\STATE\USED\Sgiftbox2.jpg","","","","","Memory","true","true","","","",""
"","null","html-keyboard-response","125","2.0.0","183069","p5lyc28scvl","moose","null","<div style=""font-size:60px; color: green;"">+</div>","","","","","","","","","","",""
"","null","image-keyboard-response","126","2.0.0","185082","p5lyc28scvl","moose","null","stimuli\EXEMPLAR\USED\Eholepunch1.jpg","","","","","Memory","false","null","","","",""
"","null","html-keyboard-response","127","2.0.0","185599","p5lyc28scvl","moose","null","<div style=""font-size:60px; color: black;"">+</div>","","","","","","","","","","",""
"","null","image-keyboard-response","128","2.0.0","187604","p5lyc28scvl","moose","null","stimuli\STATE\USED\Spiggybank2.jpg","","","","","Memory","false","null","","","",""
"","null","html-keyboard-response","129","2.0.0","188114","p5lyc28scvl","moose","null","<div style=""font-size:60px; color: black;"">+</div>","","","","","","","","","","",""
"","null","image-keyboard-response","130","2.0.0","190123","p5lyc28scvl","moose","null","stimuli\EXEMPLAR\USED\Espraybottle1.jpg","","","","","Memory","false","null","","","",""
"","null","html-keyboard-response","131","2.0.0","190639","p5lyc28scvl","moose","null","<div style=""font-size:60px; color: black;"">+</div>","","","","","","","","","","",""
"","null","image-keyboard-response","132","2.0.0","192651","p5lyc28scvl","moose","null","stimuli\EXEMPLAR\USED\Ebracelet1.jpg","","","","","Memory","false","null","","","",""
"","null","html-keyboard-response","133","2.0.0","193158","p5lyc28scvl","moose","null","<div style=""font-size:60px; color: black;"">+</div>","","","","","","","","","","",""
"","null","image-keyboard-response","134","2.0.0","195161","p5lyc28scvl","moose","null","stimuli\EXEMPLAR\USED\Elog2.jpg","","","","","Memory","false","null","","","",""
"","null","html-keyboard-response","135","2.0.0","195669","p5lyc28scvl","moose","null","<div style=""font-size:60px; color: black;"">+</div>","","","","","","","","","","",""
"","null","image-keyboard-response","136","2.0.0","197675","p5lyc28scvl","moose","null","stimuli\EXEMPLAR\USED\Etrain1.jpg","","","","","Memory","false","null","","","",""
"","null","html-keyboard-response","137","2.0.0","198184","p5lyc28scvl","moose","null","<div style=""font-size:60px; color: black;"">+</div>","","","","","","","","","","",""
"","null","image-keyboard-response","138","2.0.0","200200","p5lyc28scvl","moose","null","stimuli\EXEMPLAR\USED\Emitt2.jpg","","","","","Memory","false","null","","","",""
"","null","html-keyboard-response","139","2.0.0","200709","p5lyc28scvl","moose","null","<div style=""font-size:60px; color: black;"">+</div>","","","","","","","","","","",""
"","null","image-keyboard-response","140","2.0.0","202724","p5lyc28scvl","moose","null","stimuli\STATE\USED\Sphone1.JPG","","","","","Memory","false","null","","","",""
"","null","html-keyboard-response","141","2.0.0","203234","p5lyc28scvl","moose","null","<div style=""font-size:60px; color: black;"">+</div>","","","","","","","","","","",""
"","null","image-keyboard-response","142","2.0.0","205240","p5lyc28scvl","moose","null","stimuli\EXEMPLAR\USED\Ecake2.jpg","","","","","Memory","false","null","","","",""
"","null","html-keyboard-response","143","2.0.0","205750","p5lyc28scvl","moose","null","<div style=""font-size:60px; color: black;"">+</div>","","","","","","","","","","",""
"","null","image-keyboard-response","144","2.0.0","207762","p5lyc28scvl","moose","null","stimuli\STATE\USED\Schinesefoodbox2.jpg","","","","","Memory","false","null","","","",""
"","null","html-keyboard-response","145","2.0.0","208276","p5lyc28scvl","moose","null","<div style=""font-size:60px; color: black;"">+</div>","","","","","","","","","","",""
"","null","image-keyboard-response","146","2.0.0","210282","p5lyc28scvl","moose","null","stimuli\STATE\USED\Sredcabbage1.jpg","","","","","Memory","false","null","","","",""
"","null","html-keyboard-response","147","2.0.0","210786","p5lyc28scvl","moose","null","<div style=""font-size:60px; color: black;"">+</div>","","","","","","","","","","",""
"","null","image-keyboard-response","148","2.0.0","212799","p5lyc28scvl","moose","null","stimuli\EXEMPLAR\USED\Emoney1.jpg","","","","","Memory","false","null","","","",""
"","null","html-keyboard-response","149","2.0.0","213303","p5lyc28scvl","moose","null","<div style=""font-size:60px; color: black;"">+</div>","","","","","","","","","","",""
"","null","image-keyboard-response","150","2.0.0","215320","p5lyc28scvl","moose","null","stimuli\STATE\USED\Sbook2.JPG","","","","","Memory","false","null","","","",""
"","null","html-keyboard-response","151","2.0.0","215828","p5lyc28scvl","moose","null","<div style=""font-size:60px; color: black;"">+</div>","","","","","","","","","","",""
"","null","image-keyboard-response","152","2.0.0","217835","p5lyc28scvl","moose","null","stimuli\STATE\USED\Sbooks2.JPG","","","","","Memory","false","null","","","",""
"","null","html-keyboard-response","153","2.0.0","218338","p5lyc28scvl","moose","null","<div style=""font-size:60px; color: black;"">+</div>","","","","","","","","","","",""
"","846","image-keyboard-response","154","2.0.0","220352","p5lyc28scvl","moose"," ","stimuli\STATE\USED\Sredcabbage1.jpg","","","","","Memory","true","true","","","",""
"","null","html-keyboard-response","155","2.0.0","220855","p5lyc28scvl","moose","null","<div style=""font-size:60px; color: green;"">+</div>","","","","","","","","","","",""
"","null","image-keyboard-response","156","2.0.0","222864","p5lyc28scvl","moose","null","stimuli\STATE\USED\Sclipboard2.jpg","","","","","Memory","false","null","","","",""
"","null","html-keyboard-response","157","2.0.0","223365","p5lyc28scvl","moose","null","<div style=""font-size:60px; color: black;"">+</div>","","","","","","","","","","",""
"","null","image-keyboard-response","158","2.0.0","225381","p5lyc28scvl","moose","null","stimuli\STATE\USED\Sbox1.jpg","","","","","Memory","false","null","","","",""
"","null","html-keyboard-response","159","2.0.0","225894","p5lyc28scvl","moose","null","<div style=""font-size:60px; color: black;"">+</div>","","","","","","","","","","",""
"","null","image-keyboard-response","160","2.0.0","227906","p5lyc28scvl","moose","null","stimuli\STATE\USED\Srhino1.jpg","","","","","Memory","false","null","","","",""
"","null","html-keyboard-response","161","2.0.0","228409","p5lyc28scvl","moose","null","<div style=""font-size:60px; color: black;"">+</div>","","","","","","","","","","",""
"","null","image-keyboard-response","162","2.0.0","230415","p5lyc28scvl","moose","null","stimuli\STATE\USED\Sbabytoy1.JPG","","","","","Memory","false","null","","","",""
"","null","html-keyboard-response","163","2.0.0","230928","p5lyc28scvl","moose","null","<div style=""font-size:60px; color: black;"">+</div>","","","","","","","","","","",""
"","null","image-keyboard-response","164","2.0.0","232947","p5lyc28scvl","moose","null","stimuli\EXEMPLAR\USED\Earch1.jpg","","","","","Memory","false","null","","","",""
"","null","html-keyboard-response","165","2.0.0","233450","p5lyc28scvl","moose","null","<div style=""font-size:60px; color: black;"">+</div>","","","","","","","","","","",""
"","null","image-keyboard-response","166","2.0.0","235463","p5lyc28scvl","moose","null","stimuli\STATE\USED\Sbreadslice2.jpg","","","","","Memory","false","null","","","",""
"","null","html-keyboard-response","167","2.0.0","235972","p5lyc28scvl","moose","null","<div style=""font-size:60px; color: black;"">+</div>","","","","","","","","","","",""
"","null","image-keyboard-response","168","2.0.0","237982","p5lyc28scvl","moose","null","stimuli\STATE\USED\Sapplesredbasket2.JPG","","","","","Memory","false","null","","","",""
"","null","html-keyboard-response","169","2.0.0","238492","p5lyc28scvl","moose","null","<div style=""font-size:60px; color: black;"">+</div>","","","","","","","","","","",""
"","858","image-keyboard-response","170","2.0.0","240495","p5lyc28scvl","moose"," ","stimuli\STATE\USED\Sbabytoy1.JPG","","","","","Memory","true","true","","","",""
"","null","html-keyboard-response","171","2.0.0","241003","p5lyc28scvl","moose","null","<div style=""font-size:60px; color: green;"">+</div>","","","","","","","","","","",""
"","null","image-keyboard-response","172","2.0.0","243011","p5lyc28scvl","moose","null","stimuli\EXEMPLAR\USED\Egame2.jpg","","","","","Memory","false","null","","","",""
"","null","html-keyboard-response","173","2.0.0","243526","p5lyc28scvl","moose","null","<div style=""font-size:60px; color: black;"">+</div>","","","","","","","","","","",""
"","null","image-keyboard-response","174","2.0.0","245542","p5lyc28scvl","moose","null","stimuli\STATE\USED\Sscanner1.JPG","","","","","Memory","false","null","","","",""
"","null","html-keyboard-response","175","2.0.0","246058","p5lyc28scvl","moose","null","<div style=""font-size:60px; color: black;"">+</div>","","","","","","","","","","",""
"","1726","image-keyboard-response","176","2.0.0","248063","p5lyc28scvl","moose"," ","stimuli\STATE\USED\Scontainer2.JPG","","","","","Memory","false","false","","","",""
"","null","html-keyboard-response","177","2.0.0","248568","p5lyc28scvl","moose","null","<div style=""font-size:60px; color: red;"">+</div>","","","","","","","","","","",""
"","null","image-keyboard-response","178","2.0.0","250574","p5lyc28scvl","moose","null","stimuli\STATE\USED\Sapple2.jpg","","","","","Memory","false","null","","","",""
"","null","html-keyboard-response","179","2.0.0","251084","p5lyc28scvl","moose","null","<div style=""font-size:60px; color: black;"">+</div>","","","","","","","","","","",""
"","null","image-keyboard-response","180","2.0.0","253095","p5lyc28scvl","moose","null","stimuli\EXEMPLAR\USED\Elei2.jpg","","","","","Memory","false","null","","","",""
"","null","html-keyboard-response","181","2.0.0","253601","p5lyc28scvl","moose","null","<div style=""font-size:60px; color: black;"">+</div>","","","","","","","","","","",""
"","null","image-keyboard-response","182","2.0.0","255618","p5lyc28scvl","moose","null","stimuli\STATE\USED\Spolarbear2.jpg","","","","","Memory","false","null","","","",""
"","null","html-keyboard-response","183","2.0.0","256128","p5lyc28scvl","moose","null","<div style=""font-size:60px; color: black;"">+</div>","","","","","","","","","","",""
"","null","image-keyboard-response","184","2.0.0","258135","p5lyc28scvl","moose","null","stimuli\EXEMPLAR\USED\Eteapot2.JPG","","","","","Memory","false","null","","","",""
"","null","html-keyboard-response","185","2.0.0","258639","p5lyc28scvl","moose","null","<div style=""font-size:60px; color: black;"">+</div>","","","","","","","","","","",""
"","null","image-keyboard-response","186","2.0.0","260649","p5lyc28scvl","moose","null","stimuli\EXEMPLAR\USED\Echopsticks1.jpg","","","","","Memory","false","null","","","",""
"","null","html-keyboard-response","187","2.0.0","261164","p5lyc28scvl","moose","null","<div style=""font-size:60px; color: black;"">+</div>","","","","","","","","","","",""
"","null","image-keyboard-response","188","2.0.0","263177","p5lyc28scvl","moose","null","stimuli\STATE\USED\Sbrie1.JPG","","","","","Memory","false","null","","","",""
"","null","html-keyboard-response","189","2.0.0","263695","p5lyc28scvl","moose","null","<div style=""font-size:60px; color: black;"">+</div>","","","","","","","","","","",""
"","null","image-keyboard-response","190","2.0.0","265703","p5lyc28scvl","moose","null","stimuli\EXEMPLAR\USED\Echeeses1.jpg","","","","","Memory","false","null","","","",""
"","null","html-keyboard-response","191","2.0.0","266207","p5lyc28scvl","moose","null","<div style=""font-size:60px; color: black;"">+</div>","","","","","","","","","","",""
"","null","image-keyboard-response","192","2.0.0","268212","p5lyc28scvl","moose","null","stimuli\EXEMPLAR\USED\Ehoe1.jpg","","","","","Memory","false","null","","","",""
"","null","html-keyboard-response","193","2.0.0","268725","p5lyc28scvl","moose","null","<div style=""font-size:60px; color: black;"">+</div>","","","","","","","","","","",""
"","null","image-keyboard-response","194","2.0.0","270727","p5lyc28scvl","moose","null","stimuli\EXEMPLAR\USED\Esuitcase2.jpg","","","","","Memory","false","null","","","",""
"","null","html-keyboard-response","195","2.0.0","271239","p5lyc28scvl","moose","null","<div style=""font-size:60px; color: black;"">+</div>","","","","","","","","","","",""
"","715","image-keyboard-response","196","2.0.0","273250","p5lyc28scvl","moose"," ","stimuli\STATE\USED\Sbrie1.JPG","","","","","Memory","true","true","","","",""
"","null","html-keyboard-response","197","2.0.0","273770","p5lyc28scvl","moose","null","<div style=""font-size:60px; color: green;"">+</div>","","","","","","","","","","",""
"","null","image-keyboard-response","198","2.0.0","275787","p5lyc28scvl","moose","null","stimuli\EXEMPLAR\USED\Eballoon2.jpg","","","","","Memory","false","null","","","",""
"","null","html-keyboard-response","199","2.0.0","276301","p5lyc28scvl","moose","null","<div style=""font-size:60px; color: black;"">+</div>","","","","","","","","","","",""
"","null","image-keyboard-response","200","2.0.0","278317","p5lyc28scvl","moose","null","stimuli\EXEMPLAR\USED\Epiano1.jpg","","","","","Memory","false","null","","","",""
"","null","html-keyboard-response","201","2.0.0","278824","p5lyc28scvl","moose","null","<div style=""font-size:60px; color: black;"">+</div>","","","","","","","","","","",""
"","null","image-keyboard-response","202","2.0.0","280836","p5lyc28scvl","moose","null","stimuli\STATE\USED\Sdoughhands2.jpg","","","","","Memory","false","null","","","",""
"","null","html-keyboard-response","203","2.0.0","281338","p5lyc28scvl","moose","null","<div style=""font-size:60px; color: black;"">+</div>","","","","","","","","","","",""
"","null","image-keyboard-response","204","2.0.0","283352","p5lyc28scvl","moose","null","stimuli\STATE\USED\Saccordion2.jpg","","","","","Memory","false","null","","","",""
"","null","html-keyboard-response","205","2.0.0","283856","p5lyc28scvl","moose","null","<div style=""font-size:60px; color: black;"">+</div>","","","","","","","","","","",""
"","null","image-keyboard-response","206","2.0.0","285862","p5lyc28scvl","moose","null","stimuli\EXEMPLAR\USED\Ekayak2.jpg","","","","","Memory","false","null","","","",""
"","null","html-keyboard-response","207","2.0.0","286377","p5lyc28scvl","moose","null","<div style=""font-size:60px; color: black;"">+</div>","","","","","","","","","","",""
"","756","image-keyboard-response","208","2.0.0","288386","p5lyc28scvl","moose"," ","stimuli\EXEMPLAR\USED\Epiano1.jpg","","","","","Memory","true","true","","","",""
"","null","html-keyboard-response","209","2.0.0","288895","p5lyc28scvl","moose","null","<div style=""font-size:60px; color: green;"">+</div>","","","","","","","","","","",""
"","2346","html-button-response","210","2.0.0","291243","p5lyc28scvl","moose","0","Are you still there?","","","","","Attention Check","","","","","",""
"","null","image-keyboard-response","211","2.0.0","293253","p5lyc28scvl","moose","null","stimuli\EXEMPLAR\USED\Econe1.jpg","","","","","Memory","false","null","","","",""
"","null","html-keyboard-response","212","2.0.0","293766","p5lyc28scvl","moose","null","<div style=""font-size:60px; color: black;"">+</div>","","","","","","","","","","",""
"","null","image-keyboard-response","213","2.0.0","295782","p5lyc28scvl","moose","null","stimuli\EXEMPLAR\USED\Epliers2.jpg","","","","","Memory","false","null","","","",""
"","null","html-keyboard-response","214","2.0.0","296294","p5lyc28scvl","moose","null","<div style=""font-size:60px; color: black;"">+</div>","","","","","","","","","","",""
"","null","image-keyboard-response","215","2.0.0","298311","p5lyc28scvl","moose","null","stimuli\STATE\USED\Shairbrush2.jpg","","","","","Memory","false","null","","","",""
"","null","html-keyboard-response","216","2.0.0","298821","p5lyc28scvl","moose","null","<div style=""font-size:60px; color: black;"">+</div>","","","","","","","","","","",""
"","null","image-keyboard-response","217","2.0.0","300829","p5lyc28scvl","moose","null","stimuli\STATE\USED\Sdonut1.jpg","","","","","Memory","false","null","","","",""
"","null","html-keyboard-response","218","2.0.0","301344","p5lyc28scvl","moose","null","<div style=""font-size:60px; color: black;"">+</div>","","","","","","","","","","",""
"","null","image-keyboard-response","219","2.0.0","303357","p5lyc28scvl","moose","null","stimuli\STATE\USED\Siron2.jpg","","","","","Memory","false","null","","","",""
"","null","html-keyboard-response","220","2.0.0","303859","p5lyc28scvl","moose","null","<div style=""font-size:60px; color: black;"">+</div>","","","","","","","","","","",""
"","null","image-keyboard-response","221","2.0.0","305876","p5lyc28scvl","moose","null","stimuli\EXEMPLAR\USED\Ewineglass1.jpg","","","","","Memory","false","null","","","",""
"","null","html-keyboard-response","222","2.0.0","306379","p5lyc28scvl","moose","null","<div style=""font-size:60px; color: black;"">+</div>","","","","","","","","","","",""
"","null","image-keyboard-response","223","2.0.0","308384","p5lyc28scvl","moose","null","stimuli\STATE\USED\Smetronome2.JPG","","","","","Memory","false","null","","","",""
"","null","html-keyboard-response","224","2.0.0","308901","p5lyc28scvl","moose","null","<div style=""font-size:60px; color: black;"">+</div>","","","","","","","","","","",""
"","null","image-keyboard-response","225","2.0.0","310913","p5lyc28scvl","moose","null","stimuli\STATE\USED\Sseats2.jpg","","","","","Memory","false","null","","","",""
"","null","html-keyboard-response","226","2.0.0","311429","p5lyc28scvl","moose","null","<div style=""font-size:60px; color: black;"">+</div>","","","","","","","","","","",""
"","829","image-keyboard-response","227","2.0.0","313435","p5lyc28scvl","moose"," ","stimuli\STATE\USED\Siron2.jpg","","","","","Memory","true","true","","","",""
"","null","html-keyboard-response","228","2.0.0","313938","p5lyc28scvl","moose","null","<div style=""font-size:60px; color: green;"">+</div>","","","","","","","","","","",""
"","null","image-keyboard-response","229","2.0.0","315949","p5lyc28scvl","moose","null","stimuli\EXEMPLAR\USED\Etoykeys1.jpg","","","","","Memory","false","null","","","",""
"","null","html-keyboard-response","230","2.0.0","316457","p5lyc28scvl","moose","null","<div style=""font-size:60px; color: black;"">+</div>","","","","","","","","","","",""
"","null","image-keyboard-response","231","2.0.0","318462","p5lyc28scvl","moose","null","stimuli\EXEMPLAR\USED\Erazor1.jpg","","","","","Memory","false","null","","","",""
"","null","html-keyboard-response","232","2.0.0","318978","p5lyc28scvl","moose","null","<div style=""font-size:60px; color: black;"">+</div>","","","","","","","","","","",""
"","null","image-keyboard-response","233","2.0.0","320991","p5lyc28scvl","moose","null","stimuli\STATE\USED\Sgrinder1.jpg","","","","","Memory","false","null","","","",""
"","null","html-keyboard-response","234","2.0.0","321502","p5lyc28scvl","moose","null","<div style=""font-size:60px; color: black;"">+</div>","","","","","","","","","","",""
"","null","image-keyboard-response","235","2.0.0","323516","p5lyc28scvl","moose","null","stimuli\EXEMPLAR\USED\Edinosaur2.jpg","","","","","Memory","false","null","","","",""
"","null","html-keyboard-response","236","2.0.0","324030","p5lyc28scvl","moose","null","<div style=""font-size:60px; color: black;"">+</div>","","","","","","","","","","",""
"","909","image-keyboard-response","237","2.0.0","326043","p5lyc28scvl","moose"," ","stimuli\EXEMPLAR\USED\Etoykeys1.jpg","","","","","Memory","true","true","","","",""
"","null","html-keyboard-response","238","2.0.0","326553","p5lyc28scvl","moose","null","<div style=""font-size:60px; color: green;"">+</div>","","","","","","","","","","",""
"","null","image-keyboard-response","239","2.0.0","328557","p5lyc28scvl","moose","null","stimuli\EXEMPLAR\USED\Emedal2.jpg","","","","","Memory","false","null","","","",""
"","null","html-keyboard-response","240","2.0.0","329068","p5lyc28scvl","moose","null","<div style=""font-size:60px; color: black;"">+</div>","","","","","","","","","","",""
"","null","image-keyboard-response","241","2.0.0","331076","p5lyc28scvl","moose","null","stimuli\EXEMPLAR\USED\Escroll1.jpg","","","","","Memory","false","null","","","",""
"","null","html-keyboard-response","242","2.0.0","331586","p5lyc28scvl","moose","null","<div style=""font-size:60px; color: black;"">+</div>","","","","","","","","","","",""
"","null","image-keyboard-response","243","2.0.0","333591","p5lyc28scvl","moose","null","stimuli\STATE\USED\Seggplant2.jpg","","","","","Memory","false","null","","","",""
"","null","html-keyboard-response","244","2.0.0","334094","p5lyc28scvl","moose","null","<div style=""font-size:60px; color: black;"">+</div>","","","","","","","","","","",""
"","null","image-keyboard-response","245","2.0.0","336104","p5lyc28scvl","moose","null","stimuli\STATE\USED\Sstoplight2.jpg","","","","","Memory","false","null","","","",""
"","null","html-keyboard-response","246","2.0.0","336614","p5lyc28scvl","moose","null","<div style=""font-size:60px; color: black;"">+</div>","","","","","","","","","","",""
"","1054","image-keyboard-response","247","2.0.0","338630","p5lyc28scvl","moose"," ","stimuli\EXEMPLAR\USED\Emedal2.jpg","","","","","Memory","true","true","","","",""
"","null","html-keyboard-response","248","2.0.0","339134","p5lyc28scvl","moose","null","<div style=""font-size:60px; color: green;"">+</div>","","","","","","","","","","",""
"","null","image-keyboard-response","249","2.0.0","341142","p5lyc28scvl","moose","null","stimuli\EXEMPLAR\USED\Esunglasses1.jpg","","","","","Memory","false","null","","","",""
"","null","html-keyboard-response","250","2.0.0","341651","p5lyc28scvl","moose","null","<div style=""font-size:60px; color: black;"">+</div>","","","","","","","","","","",""
"","null","image-keyboard-response","251","2.0.0","343655","p5lyc28scvl","moose","null","stimuli\EXEMPLAR\USED\Echocolatebar2.jpg","","","","","Memory","false","null","","","",""
"","null","html-keyboard-response","252","2.0.0","344164","p5lyc28scvl","moose","null","<div style=""font-size:60px; color: black;"">+</div>","","","","","","","","","","",""
"","null","image-keyboard-response","253","2.0.0","346181","p5lyc28scvl","moose","null","stimuli\EXEMPLAR\USED\Emicroscope1.jpg","","","","","Memory","false","null","","","",""
"","null","html-keyboard-response","254","2.0.0","346686","p5lyc28scvl","moose","null","<div style=""font-size:60px; color: black;"">+</div>","","","","","","","","","","",""
"","null","image-keyboard-response","255","2.0.0","348702","p5lyc28scvl","moose","null","stimuli\EXEMPLAR\USED\Ebicycle1.jpg","","","","","Memory","false","null","","","",""
"","null","html-keyboard-response","256","2.0.0","349216","p5lyc28scvl","moose","null","<div style=""font-size:60px; color: black;"">+</div>","","","","","","","","","","",""
"","null","image-keyboard-response","257","2.0.0","351220","p5lyc28scvl","moose","null","stimuli\EXEMPLAR\USED\Ecalculator2.jpg","","","","","Memory","false","null","","","",""
"","null","html-keyboard-response","258","2.0.0","351724","p5lyc28scvl","moose","null","<div style=""font-size:60px; color: black;"">+</div>","","","","","","","","","","",""
"","null","image-keyboard-response","259","2.0.0","353735","p5lyc28scvl","moose","null","stimuli\EXEMPLAR\USED\Ehanger1.jpg","","","","","Memory","false","null","","","",""
"","null","html-keyboard-response","260","2.0.0","354238","p5lyc28scvl","moose","null","<div style=""font-size:60px; color: black;"">+</div>","","","","","","","","","","",""
"","null","image-keyboard-response","261","2.0.0","356255","p5lyc28scvl","moose","null","stimuli\STATE\USED\Sscissors1.JPG","","","","","Memory","false","null","","","",""
"","null","html-keyboard-response","262","2.0.0","356766","p5lyc28scvl","moose","null","<div style=""font-size:60px; color: black;"">+</div>","","","","","","","","","","",""
"","null","image-keyboard-response","263","2.0.0","358772","p5lyc28scvl","moose","null","stimuli\EXEMPLAR\USED\Ebread2.jpg","","","","","Memory","false","null","","","",""
"","null","html-keyboard-response","264","2.0.0","359274","p5lyc28scvl","moose","null","<div style=""font-size:60px; color: black;"">+</div>","","","","","","","","","","",""
"","null","image-keyboard-response","265","2.0.0","361291","p5lyc28scvl","moose","null","stimuli\STATE\USED\Smedicaltape1.jpg","","","","","Memory","false","null","","","",""
"","null","html-keyboard-response","266","2.0.0","361801","p5lyc28scvl","moose","null","<div style=""font-size:60px; color: black;"">+</div>","","","","","","","","","","",""
"","757","image-keyboard-response","267","2.0.0","363807","p5lyc28scvl","moose"," ","stimuli\EXEMPLAR\USED\Ehanger1.jpg","","","","","Memory","true","true","","","",""
"","null","html-keyboard-response","268","2.0.0","364316","p5lyc28scvl","moose","null","<div style=""font-size:60px; color: green;"">+</div>","","","","","","","","","","",""
"","null","image-keyboard-response","269","2.0.0","366322","p5lyc28scvl","moose","null","stimuli\EXEMPLAR\USED\Etrophy1.jpg","","","","","Memory","false","null","","","",""
"","null","html-keyboard-response","270","2.0.0","366836","p5lyc28scvl","moose","null","<div style=""font-size:60px; color: black;"">+</div>","","","","","","","","","","",""
"","null","image-keyboard-response","271","2.0.0","368848","p5lyc28scvl","moose","null","stimuli\EXEMPLAR\USED\Epeppers1.jpg","","","","","Memory","false","null","","","",""
"","null","html-keyboard-response","272","2.0.0","369357","p5lyc28scvl","moose","null","<div style=""font-size:60px; color: black;"">+</div>","","","","","","","","","","",""
"","null","image-keyboard-response","273","2.0.0","371359","p5lyc28scvl","moose","null","stimuli\STATE\USED\Sbureau2.JPG","","","","","Memory","false","null","","","",""
"","null","html-keyboard-response","274","2.0.0","371867","p5lyc28scvl","moose","null","<div style=""font-size:60px; color: black;"">+</div>","","","","","","","","","","",""
"","null","image-keyboard-response","275","2.0.0","373878","p5lyc28scvl","moose","null","stimuli\EXEMPLAR\USED\Emuffler1.jpg","","","","","Memory","false","null","","","",""
"","null","html-keyboard-response","276","2.0.0","374382","p5lyc28scvl","moose","null","<div style=""font-size:60px; color: black;"">+</div>","","","","","","","","","","",""
"","null","image-keyboard-response","277","2.0.0","376386","p5lyc28scvl","moose","null","stimuli\EXEMPLAR\USED\Eelectricbass1.jpg","","","","","Memory","false","null","","","",""
"","null","html-keyboard-response","278","2.0.0","376904","p5lyc28scvl","moose","null","<div style=""font-size:60px; color: black;"">+</div>","","","","","","","","","","",""
"","null","image-keyboard-response","279","2.0.0","378916","p5lyc28scvl","moose","null","stimuli\EXEMPLAR\USED\Ebell2.jpg","","","","","Memory","false","null","","","",""
"","null","html-keyboard-response","280","2.0.0","379426","p5lyc28scvl","moose","null","<div style=""font-size:60px; color: black;"">+</div>","","","","","","","","","","",""
"","null","image-keyboard-response","281","2.0.0","381434","p5lyc28scvl","moose","null","stimuli\EXEMPLAR\USED\Ewheelchair2.jpg","","","","","Memory","false","null","","","",""
"","null","html-keyboard-response","282","2.0.0","381942","p5lyc28scvl","moose","null","<div style=""font-size:60px; color: black;"">+</div>","","","","","","","","","","",""
"","799","image-keyboard-response","283","2.0.0","383951","p5lyc28scvl","moose"," ","stimuli\EXEMPLAR\USED\Emuffler1.jpg","","","","","Memory","true","true","","","",""
"","null","html-keyboard-response","284","2.0.0","384452","p5lyc28scvl","moose","null","<div style=""font-size:60px; color: green;"">+</div>","","","","","","","","","","",""
"","null","image-keyboard-response","285","2.0.0","386465","p5lyc28scvl","moose","null","stimuli\STATE\USED\Sskull2.jpg","","","","","Memory","false","null","","","",""
"","null","html-keyboard-response","286","2.0.0","386976","p5lyc28scvl","moose","null","<div style=""font-size:60px; color: black;"">+</div>","","","","","","","","","","",""
"","null","image-keyboard-response","287","2.0.0","388980","p5lyc28scvl","moose","null","stimuli\STATE\USED\Sboxwhite1.jpg","","","","","Memory","false","null","","","",""
"","null","html-keyboard-response","288","2.0.0","389488","p5lyc28scvl","moose","null","<div style=""font-size:60px; color: black;"">+</div>","","","","","","","","","","",""
"","null","image-keyboard-response","289","2.0.0","391493","p5lyc28scvl","moose","null","stimuli\STATE\USED\Spicnicbasket1.jpg","","","","","Memory","false","null","","","",""
"","null","html-keyboard-response","290","2.0.0","392003","p5lyc28scvl","moose","null","<div style=""font-size:60px; color: black;"">+</div>","","","","","","","","","","",""
"","null","image-keyboard-response","291","2.0.0","394015","p5lyc28scvl","moose","null","stimuli\EXEMPLAR\USED\Emuffin1.jpg","","","","","Memory","false","null","","","",""
"","null","html-keyboard-response","292","2.0.0","394524","p5lyc28scvl","moose","null","<div style=""font-size:60px; color: black;"">+</div>","","","","","","","","","","",""
"","null","image-keyboard-response","293","2.0.0","396538","p5lyc28scvl","moose","null","stimuli\EXEMPLAR\USED\Eplate1.jpg","","","","","Memory","false","null","","","",""
"","null","html-keyboard-response","294","2.0.0","397048","p5lyc28scvl","moose","null","<div style=""font-size:60px; color: black;"">+</div>","","","","","","","","","","",""
"","null","image-keyboard-response","295","2.0.0","399057","p5lyc28scvl","moose","null","stimuli\STATE\USED\Sbelt2.jpg","","","","","Memory","false","null","","","",""
"","null","html-keyboard-response","296","2.0.0","399560","p5lyc28scvl","moose","null","<div style=""font-size:60px; color: black;"">+</div>","","","","","","","","","","",""
"","null","image-keyboard-response","297","2.0.0","401567","p5lyc28scvl","moose","null","stimuli\EXEMPLAR\USED\Eturtle2.jpg","","","","","Memory","false","null","","","",""
"","null","html-keyboard-response","298","2.0.0","402077","p5lyc28scvl","moose","null","<div style=""font-size:60px; color: black;"">+</div>","","","","","","","","","","",""
"","814","image-keyboard-response","299","2.0.0","404092","p5lyc28scvl","moose"," ","stimuli\EXEMPLAR\USED\Emuffin1.jpg","","","","","Memory","true","true","","","",""
"","null","html-keyboard-response","300","2.0.0","404595","p5lyc28scvl","moose","null","<div style=""font-size:60px; color: green;"">+</div>","","","","","","","","","","",""
"","null","image-keyboard-response","301","2.0.0","406601","p5lyc28scvl","moose","null","stimuli\EXEMPLAR\USED\Erabbit1.jpg","","","","","Memory","false","null","","","",""
"","null","html-keyboard-response","302","2.0.0","407111","p5lyc28scvl","moose","null","<div style=""font-size:60px; color: black;"">+</div>","","","","","","","","","","",""
"","null","image-keyboard-response","303","2.0.0","409116","p5lyc28scvl","moose","null","stimuli\STATE\USED\Shandmirror1.jpg","","","","","Memory","false","null","","","",""
"","null","html-keyboard-response","304","2.0.0","409621","p5lyc28scvl","moose","null","<div style=""font-size:60px; color: black;"">+</div>","","","","","","","","","","",""
"","null","image-keyboard-response","305","2.0.0","411625","p5lyc28scvl","moose","null","stimuli\STATE\USED\Stiger2.jpg","","","","","Memory","false","null","","","",""
"","null","html-keyboard-response","306","2.0.0","412135","p5lyc28scvl","moose","null","<div style=""font-size:60px; color: black;"">+</div>","","","","","","","","","","",""
"","null","image-keyboard-response","307","2.0.0","414144","p5lyc28scvl","moose","null","stimuli\EXEMPLAR\USED\Etoyhand1.jpg","","","","","Memory","false","null","","","",""
"","null","html-keyboard-response","308","2.0.0","414653","p5lyc28scvl","moose","null","<div style=""font-size:60px; color: black;"">+</div>","","","","","","","","","","",""
"","null","image-keyboard-response","309","2.0.0","416659","p5lyc28scvl","moose","null","stimuli\EXEMPLAR\USED\Ehorn2.jpg","","","","","Memory","false","null","","","",""
"","null","html-keyboard-response","310","2.0.0","417164","p5lyc28scvl","moose","null","<div style=""font-size:60px; color: black;"">+</div>","","","","","","","","","","",""
"","null","image-keyboard-response","311","2.0.0","419173","p5lyc28scvl","moose","null","stimuli\STATE\USED\Scateringtray1.jpg","","","","","Memory","false","null","","","",""
"","null","html-keyboard-response","312","2.0.0","419676","p5lyc28scvl","moose","null","<div style=""font-size:60px; color: black;"">+</div>","","","","","","","","","","",""
"","2322","html-button-response","313","2.0.0","421999","p5lyc28scvl","moose","0","Are you still there?","","","","","Attention Check","","","","","",""
"","null","image-keyboard-response","314","2.0.0","424009","p5lyc28scvl","moose","null","stimuli\EXEMPLAR\USED\Ebrick1.jpg","","","","","Memory","false","null","","","",""
"","null","html-keyboard-response","315","2.0.0","424510","p5lyc28scvl","moose","null","<div style=""font-size:60px; color: black;"">+</div>","","","","","","","","","","",""
"","null","image-keyboard-response","316","2.0.0","426525","p5lyc28scvl","moose","null","stimuli\EXEMPLAR\USED\Efishbowl1.jpg","","","","","Memory","false","null","","","",""
"","null","html-keyboard-response","317","2.0.0","427037","p5lyc28scvl","moose","null","<div style=""font-size:60px; color: black;"">+</div>","","","","","","","","","","",""
"","887","image-keyboard-response","318","2.0.0","429043","p5lyc28scvl","moose"," ","stimuli\EXEMPLAR\USED\Ehorn2.jpg","","","","","Memory","true","true","","","",""
"","null","html-keyboard-response","319","2.0.0","429546","p5lyc28scvl","moose","null","<div style=""font-size:60px; color: green;"">+</div>","","","","","","","","","","",""
"","null","image-keyboard-response","320","2.0.0","431557","p5lyc28scvl","moose","null","stimuli\EXEMPLAR\USED\Eremote2.jpg","","","","","Memory","false","null","","","",""
"","null","html-keyboard-response","321","2.0.0","432070","p5lyc28scvl","moose","null","<div style=""font-size:60px; color: black;"">+</div>","","","","","","","","","","",""
"","1513","image-keyboard-response","322","2.0.0","434085","p5lyc28scvl","moose"," ","stimuli\STATE\USED\Sflask2.jpg","","","","","Memory","false","false","","","",""
"","null","html-keyboard-response","323","2.0.0","434590","p5lyc28scvl","moose","null","<div style=""font-size:60px; color: red;"">+</div>","","","","","","","","","","",""
"","null","image-keyboard-response","324","2.0.0","436597","p5lyc28scvl","moose","null","stimuli\STATE\USED\Shandshake2.JPG","","","","","Memory","false","null","","","",""
"","null","html-keyboard-response","325","2.0.0","437100","p5lyc28scvl","moose","null","<div style=""font-size:60px; color: black;"">+</div>","","","","","","","","","","",""
"","null","image-keyboard-response","326","2.0.0","439113","p5lyc28scvl","moose","null","stimuli\EXEMPLAR\USED\Etoywrench2.jpg","","","","","Memory","false","null","","","",""
"","null","html-keyboard-response","327","2.0.0","439625","p5lyc28scvl","moose","null","<div style=""font-size:60px; color: black;"">+</div>","","","","","","","","","","",""
"","null","image-keyboard-response","328","2.0.0","441632","p5lyc28scvl","moose","null","stimuli\EXEMPLAR\USED\Ebinoculars1.jpg","","","","","Memory","false","null","","","",""
"","null","html-keyboard-response","329","2.0.0","442140","p5lyc28scvl","moose","null","<div style=""font-size:60px; color: black;"">+</div>","","","","","","","","","","",""
"","null","image-keyboard-response","330","2.0.0","444151","p5lyc28scvl","moose","null","stimuli\STATE\USED\Sdrum1.jpg","","","","","Memory","false","null","","","",""
"","null","html-keyboard-response","331","2.0.0","444659","p5lyc28scvl","moose","null","<div style=""font-size:60px; color: black;"">+</div>","","","","","","","","","","",""
"","null","image-keyboard-response","332","2.0.0","446669","p5lyc28scvl","moose","null","stimuli\EXEMPLAR\USED\Edispenser1.jpg","","","","","Memory","false","null","","","",""
"","null","html-keyboard-response","333","2.0.0","447181","p5lyc28scvl","moose","null","<div style=""font-size:60px; color: black;"">+</div>","","","","","","","","","","",""
"","977","image-keyboard-response","334","2.0.0","449186","p5lyc28scvl","moose"," ","stimuli\EXEMPLAR\USED\Etoywrench2.jpg","","","","","Memory","true","true","","","",""
"","null","html-keyboard-response","335","2.0.0","449692","p5lyc28scvl","moose","null","<div style=""font-size:60px; color: green;"">+</div>","","","","","","","","","","",""
"","null","image-keyboard-response","336","2.0.0","451707","p5lyc28scvl","moose","null","stimuli\STATE\USED\Sbarnmailbox1.jpg","","","","","Memory","false","null","","","",""
"","null","html-keyboard-response","337","2.0.0","452218","p5lyc28scvl","moose","null","<div style=""font-size:60px; color: black;"">+</div>","","","","","","","","","","",""
"","null","image-keyboard-response","338","2.0.0","454221","p5lyc28scvl","moose","null","stimuli\STATE\USED\Sdie1.jpg","","","","","Memory","false","null","","","",""
"","null","html-keyboard-response","339","2.0.0","454727","p5lyc28scvl","moose","null","<div style=""font-size:60px; color: black;"">+</div>","","","","","","","","","","",""
"","null","image-keyboard-response","340","2.0.0","456739","p5lyc28scvl","moose","null","stimuli\STATE\USED\Sphoneold2.jpg","","","","","Memory","false","null","","","",""
"","null","html-keyboard-response","341","2.0.0","457250","p5lyc28scvl","moose","null","<div style=""font-size:60px; color: black;"">+</div>","","","","","","","","","","",""
"","null","image-keyboard-response","342","2.0.0","459273","p5lyc28scvl","moose","null","stimuli\EXEMPLAR\USED\Etongs1.jpg","","","","","Memory","false","null","","","",""
"","null","html-keyboard-response","343","2.0.0","459789","p5lyc28scvl","moose","null","<div style=""font-size:60px; color: black;"">+</div>","","","","","","","","","","",""
"","null","image-keyboard-response","344","2.0.0","461800","p5lyc28scvl","moose","null","stimuli\STATE\USED\Sdryer1.jpg","","","","","Memory","false","null","","","",""
"","null","html-keyboard-response","345","2.0.0","462311","p5lyc28scvl","moose","null","<div style=""font-size:60px; color: black;"">+</div>","","","","","","","","","","",""
"","null","image-keyboard-response","346","2.0.0","464328","p5lyc28scvl","moose","null","stimuli\STATE\USED\Slockbox1.jpg","","","","","Memory","false","null","","","",""
"","null","html-keyboard-response","347","2.0.0","464835","p5lyc28scvl","moose","null","<div style=""font-size:60px; color: black;"">+</div>","","","","","","","","","","",""
"","4639","html-keyboard-response","348","2.0.0","469475","p5lyc28scvl","moose"," ","
          <p>In the next part of this experiment, you will see 2 images. Please select the image that you recall from the image stream.</p>
          <p>You will also rate your confidence for each image you recall.</p>
          <p>Press any key to start.</p>
        ","","","","","","","","","","",""
"","3613","html-button-response","349","2.0.0","473089","p5lyc28scvl","moose","1","Which of these items did you see before?","","","","","Test","","true","[""stimuli\\EXEMPLAR\\USED\\Ehotairballoon2.jpg"",""stimuli\\EXEMPLAR\\USED\\Ehotairballoon1.jpg""]","stimuli\EXEMPLAR\USED\Ehotairballoon1.jpg","stimuli\EXEMPLAR\USED\Ehotairballoon1.jpg",""
"","3290","image-slider-response","350","2.0.0","476382","p5lyc28scvl","moose","1","stimuli\EXEMPLAR\USED\Ehotairballoon1.jpg","","","","","","","","","","","3"
"","2248","html-button-response","351","2.0.0","478631","p5lyc28scvl","moose","0","Which of these items did you see before?","","","","","Test","","true","[""stimuli\\STATE\\USED\\Sdishes1.JPG"",""stimuli\\STATE\\USED\\Sdishes2.JPG""]","stimuli\STATE\USED\Sdishes1.JPG","stimuli\STATE\USED\Sdishes1.JPG",""
"","1610","image-slider-response","352","2.0.0","480243","p5lyc28scvl","moose","5","stimuli\STATE\USED\Sdishes1.JPG","","","","","","","","","","","3"
"","2915","html-button-response","353","2.0.0","483161","p5lyc28scvl","moose","1","Which of these items did you see before?","","","","","Test","","true","[""stimuli\\STATE\\USED\\Sdoughhands1.jpg"",""stimuli\\STATE\\USED\\Sdoughhands2.jpg""]","stimuli\STATE\USED\Sdoughhands2.jpg","stimuli\STATE\USED\Sdoughhands2.jpg",""
"","1677","image-slider-response","354","2.0.0","484840","p5lyc28scvl","moose","4","stimuli\STATE\USED\Sdoughhands2.jpg","","","","","","","","","","","3"
"","1867","html-button-response","355","2.0.0","486708","p5lyc28scvl","moose","1","Which of these items did you see before?","","","","","Test","","true","[""stimuli\\STATE\\USED\\Spestle1.jpg"",""stimuli\\STATE\\USED\\Spestle2.jpg""]","stimuli\STATE\USED\Spestle2.jpg","stimuli\STATE\USED\Spestle2.jpg",""
"","2151","image-slider-response","356","2.0.0","488861","p5lyc28scvl","moose","3","stimuli\STATE\USED\Spestle2.jpg","","","","","","","","","","","3"
"","1903","html-button-response","357","2.0.0","490766","p5lyc28scvl","moose","1","Which of these items did you see before?","","","","","Test","","true","[""stimuli\\STATE\\USED\\Swaffleiron1.jpg"",""stimuli\\STATE\\USED\\Swaffleiron2.jpg""]","stimuli\STATE\USED\Swaffleiron2.jpg","stimuli\STATE\USED\Swaffleiron2.jpg",""
"","2495","image-slider-response","358","2.0.0","493263","p5lyc28scvl","moose","1","stimuli\STATE\USED\Swaffleiron2.jpg","","","","","","","","","","","3"
"","1333","html-button-response","359","2.0.0","494598","p5lyc28scvl","moose","0","Which of these items did you see before?","","","","","Test","","true","[""stimuli\\EXEMPLAR\\USED\\Emuffin1.jpg"",""stimuli\\EXEMPLAR\\USED\\Emuffin2.jpg""]","stimuli\EXEMPLAR\USED\Emuffin1.jpg","stimuli\EXEMPLAR\USED\Emuffin1.jpg",""
"","2106","image-slider-response","360","2.0.0","496706","p5lyc28scvl","moose","5","stimuli\EXEMPLAR\USED\Emuffin1.jpg","","","","","","","","","","","3"
"","2578","html-button-response","361","2.0.0","499285","p5lyc28scvl","moose","0","Which of these items did you see before?","","","","","Test","","true","[""stimuli\\EXEMPLAR\\USED\\Erazor1.jpg"",""stimuli\\EXEMPLAR\\USED\\Erazor2.jpg""]","stimuli\EXEMPLAR\USED\Erazor1.jpg","stimuli\EXEMPLAR\USED\Erazor1.jpg",""
"","1941","image-slider-response","362","2.0.0","501228","p5lyc28scvl","moose","2","stimuli\EXEMPLAR\USED\Erazor1.jpg","","","","","","","","","","","3"
"","3906","html-button-response","363","2.0.0","505135","p5lyc28scvl","moose","1","Which of these items did you see before?","","","","","Test","","false","[""stimuli\\STATE\\USED\\Scooker2.jpg"",""stimuli\\STATE\\USED\\Scooker1.jpg""]","stimuli\STATE\USED\Scooker2.jpg","stimuli\STATE\USED\Scooker1.jpg",""
"","1993","image-slider-response","364","2.0.0","507130","p5lyc28scvl","moose","1","stimuli\STATE\USED\Scooker1.jpg","","","","","","","","","","","3"
"","1395","html-button-response","365","2.0.0","508526","p5lyc28scvl","moose","0","Which of these items did you see before?","","","","","Test","","true","[""stimuli\\STATE\\USED\\Sskull2.jpg"",""stimuli\\STATE\\USED\\Sskull1.jpg""]","stimuli\STATE\USED\Sskull2.jpg","stimuli\STATE\USED\Sskull2.jpg",""
"","1819","image-slider-response","366","2.0.0","510348","p5lyc28scvl","moose","5","stimuli\STATE\USED\Sskull2.jpg","","","","","","","","","","","3"
"","2368","html-button-response","367","2.0.0","512718","p5lyc28scvl","moose","0","Which of these items did you see before?","","","","","Test","","true","[""stimuli\\EXEMPLAR\\USED\\Esantahat1.jpg"",""stimuli\\EXEMPLAR\\USED\\Esantahat2.jpg""]","stimuli\EXEMPLAR\USED\Esantahat1.jpg","stimuli\EXEMPLAR\USED\Esantahat1.jpg",""
"","1483","image-slider-response","368","2.0.0","514203","p5lyc28scvl","moose","3","stimuli\EXEMPLAR\USED\Esantahat1.jpg","","","","","","","","","","","3"
"","3015","html-button-response","369","2.0.0","517219","p5lyc28scvl","moose","1","Which of these items did you see before?","","","","","Test","","true","[""stimuli\\EXEMPLAR\\USED\\Etractor2.jpg"",""stimuli\\EXEMPLAR\\USED\\Etractor1.jpg""]","stimuli\EXEMPLAR\USED\Etractor1.jpg","stimuli\EXEMPLAR\USED\Etractor1.jpg",""
"","2007","image-slider-response","370","2.0.0","519228","p5lyc28scvl","moose","1","stimuli\EXEMPLAR\USED\Etractor1.jpg","","","","","","","","","","","3"
"","2429","html-button-response","371","2.0.0","521658","p5lyc28scvl","moose","1","Which of these items did you see before?","","","","","Test","","true","[""stimuli\\STATE\\USED\\Sapplesredbasket1.JPG"",""stimuli\\STATE\\USED\\Sapplesredbasket2.JPG""]","stimuli\STATE\USED\Sapplesredbasket2.JPG","stimuli\STATE\USED\Sapplesredbasket2.JPG",""
"","1820","image-slider-response","372","2.0.0","523481","p5lyc28scvl","moose","1","stimuli\STATE\USED\Sapplesredbasket2.JPG","","","","","","","","","","","3"
"","1424","html-button-response","373","2.0.0","524906","p5lyc28scvl","moose","1","Which of these items did you see before?","","","","","Test","","true","[""stimuli\\EXEMPLAR\\USED\\Etoyhand2.jpg"",""stimuli\\EXEMPLAR\\USED\\Etoyhand1.jpg""]","stimuli\EXEMPLAR\USED\Etoyhand1.jpg","stimuli\EXEMPLAR\USED\Etoyhand1.jpg",""
"","1693","image-slider-response","374","2.0.0","526601","p5lyc28scvl","moose","5","stimuli\EXEMPLAR\USED\Etoyhand1.jpg","","","","","","","","","","","3"
"","1656","html-button-response","375","2.0.0","528258","p5lyc28scvl","moose","0","Which of these items did you see before?","","","","","Test","","true","[""stimuli\\EXEMPLAR\\USED\\Eguitar1.jpg"",""stimuli\\EXEMPLAR\\USED\\Eguitar2.jpg""]","stimuli\EXEMPLAR\USED\Eguitar1.jpg","stimuli\EXEMPLAR\USED\Eguitar1.jpg",""
"","1888","image-slider-response","376","2.0.0","530148","p5lyc28scvl","moose","4","stimuli\EXEMPLAR\USED\Eguitar1.jpg","","","","","","","","","","","3"
"","1259","html-button-response","377","2.0.0","531408","p5lyc28scvl","moose","1","Which of these items did you see before?","","","","","Test","","true","[""stimuli\\EXEMPLAR\\USED\\Ekayak1.jpg"",""stimuli\\EXEMPLAR\\USED\\Ekayak2.jpg""]","stimuli\EXEMPLAR\USED\Ekayak2.jpg","stimuli\EXEMPLAR\USED\Ekayak2.jpg",""
"","2345","image-slider-response","378","2.0.0","533755","p5lyc28scvl","moose","4","stimuli\EXEMPLAR\USED\Ekayak2.jpg","","","","","","","","","","","3"
"","2106","html-button-response","379","2.0.0","535863","p5lyc28scvl","moose","1","Which of these items did you see before?","","","","","Test","","true","[""stimuli\\STATE\\USED\\Sdie2.jpg"",""stimuli\\STATE\\USED\\Sdie1.jpg""]","stimuli\STATE\USED\Sdie1.jpg","stimuli\STATE\USED\Sdie1.jpg",""
"","2150","image-slider-response","380","2.0.0","538016","p5lyc28scvl","moose","1","stimuli\STATE\USED\Sdie1.jpg","","","","","","","","","","","3"
"","3374","html-button-response","381","2.0.0","541391","p5lyc28scvl","moose","1","Which of these items did you see before?","","","","","Test","","true","[""stimuli\\STATE\\USED\\Sdrum2.jpg"",""stimuli\\STATE\\USED\\Sdrum1.jpg""]","stimuli\STATE\USED\Sdrum1.jpg","stimuli\STATE\USED\Sdrum1.jpg",""
"","1325","image-slider-response","382","2.0.0","542718","p5lyc28scvl","moose","4","stimuli\STATE\USED\Sdrum1.jpg","","","","","","","","","","","3"
"","1769","html-button-response","383","2.0.0","544489","p5lyc28scvl","moose","1","Which of these items did you see before?","","","","","Test","","true","[""stimuli\\STATE\\USED\\Spadlock2.jpg"",""stimuli\\STATE\\USED\\Spadlock1.jpg""]","stimuli\STATE\USED\Spadlock1.jpg","stimuli\STATE\USED\Spadlock1.jpg",""
"","1310","image-slider-response","384","2.0.0","545801","p5lyc28scvl","moose","1","stimuli\STATE\USED\Spadlock1.jpg","","","","","","","","","","","3"
"","2324","html-button-response","385","2.0.0","548126","p5lyc28scvl","moose","0","Which of these items did you see before?","","","","","Test","","false","[""stimuli\\STATE\\USED\\Sbrushes2.jpg"",""stimuli\\STATE\\USED\\Sbrushes1.jpg""]","stimuli\STATE\USED\Sbrushes1.jpg","stimuli\STATE\USED\Sbrushes2.jpg",""
"","1714","image-slider-response","386","2.0.0","549844","p5lyc28scvl","moose","1","stimuli\STATE\USED\Sbrushes2.jpg","","","","","","","","","","","3"
"","1056","html-button-response","387","2.0.0","550901","p5lyc28scvl","moose","0","Which of these items did you see before?","","","","","Test","","true","[""stimuli\\EXEMPLAR\\USED\\Ecake2.jpg"",""stimuli\\EXEMPLAR\\USED\\Ecake1.jpg""]","stimuli\EXEMPLAR\USED\Ecake2.jpg","stimuli\EXEMPLAR\USED\Ecake2.jpg",""
"","1535","image-slider-response","388","2.0.0","552438","p5lyc28scvl","moose","5","stimuli\EXEMPLAR\USED\Ecake2.jpg","","","","","","","","","","","3"
"","1071","html-button-response","389","2.0.0","553511","p5lyc28scvl","moose","1","Which of these items did you see before?","","","","","Test","","true","[""stimuli\\STATE\\USED\\Sschoolbag2.JPG"",""stimuli\\STATE\\USED\\Sschoolbag1.JPG""]","stimuli\STATE\USED\Sschoolbag1.JPG","stimuli\STATE\USED\Sschoolbag1.JPG",""
"","1873","image-slider-response","390","2.0.0","555386","p5lyc28scvl","moose","5","stimuli\STATE\USED\Sschoolbag1.JPG","","","","","","","","","","","3"
"","1034","html-button-response","391","2.0.0","556421","p5lyc28scvl","moose","1","Which of these items did you see before?","","","","","Test","","true","[""stimuli\\EXEMPLAR\\USED\\Erabbit2.jpg"",""stimuli\\EXEMPLAR\\USED\\Erabbit1.jpg""]","stimuli\EXEMPLAR\USED\Erabbit1.jpg","stimuli\EXEMPLAR\USED\Erabbit1.jpg",""
"","1805","image-slider-response","392","2.0.0","558228","p5lyc28scvl","moose","5","stimuli\EXEMPLAR\USED\Erabbit1.jpg","","","","","","","","","","","3"
"","4701","html-button-response","393","2.0.0","562931","p5lyc28scvl","moose","1","Which of these items did you see before?","","","","","Test","","true","[""stimuli\\STATE\\USED\\Shairbrush1.jpg"",""stimuli\\STATE\\USED\\Shairbrush2.jpg""]","stimuli\STATE\USED\Shairbrush2.jpg","stimuli\STATE\USED\Shairbrush2.jpg",""
"","2571","image-slider-response","394","2.0.0","565504","p5lyc28scvl","moose","1","stimuli\STATE\USED\Shairbrush2.jpg","","","","","","","","","","","3"
"","1543","html-button-response","395","2.0.0","567048","p5lyc28scvl","moose","1","Which of these items did you see before?","","","","","Test","","true","[""stimuli\\STATE\\USED\\Spatiotable2.jpg"",""stimuli\\STATE\\USED\\Spatiotable1.jpg""]","stimuli\STATE\USED\Spatiotable1.jpg","stimuli\STATE\USED\Spatiotable1.jpg",""
"","1423","image-slider-response","396","2.0.0","568473","p5lyc28scvl","moose","4","stimuli\STATE\USED\Spatiotable1.jpg","","","","","","","","","","","3"
"","2271","html-button-response","397","2.0.0","570746","p5lyc28scvl","moose","0","Which of these items did you see before?","","","","","Test","","true","[""stimuli\\STATE\\USED\\Sscanner1.JPG"",""stimuli\\STATE\\USED\\Sscanner2.JPG""]","stimuli\STATE\USED\Sscanner1.JPG","stimuli\STATE\USED\Sscanner1.JPG",""
"","1566","image-slider-response","398","2.0.0","572314","p5lyc28scvl","moose","4","stimuli\STATE\USED\Sscanner1.JPG","","","","","","","","","","","3"
"","1138","html-button-response","399","2.0.0","573453","p5lyc28scvl","moose","0","Which of these items did you see before?","","","","","Test","","true","[""stimuli\\EXEMPLAR\\USED\\Epiano1.jpg"",""stimuli\\EXEMPLAR\\USED\\Epiano2.jpg""]","stimuli\EXEMPLAR\USED\Epiano1.jpg","stimuli\EXEMPLAR\USED\Epiano1.jpg",""
"","1882","image-slider-response","400","2.0.0","575337","p5lyc28scvl","moose","5","stimuli\EXEMPLAR\USED\Epiano1.jpg","","","","","","","","","","","3"
"","2699","html-button-response","401","2.0.0","578037","p5lyc28scvl","moose","0","Which of these items did you see before?","","","","","Test","","true","[""stimuli\\STATE\\USED\\Spumpkinpie1.jpg"",""stimuli\\STATE\\USED\\Spumpkinpie2.jpg""]","stimuli\STATE\USED\Spumpkinpie1.jpg","stimuli\STATE\USED\Spumpkinpie1.jpg",""
"","1557","image-slider-response","402","2.0.0","579596","p5lyc28scvl","moose","2","stimuli\STATE\USED\Spumpkinpie1.jpg","","","","","","","","","","","3"
"","996","html-button-response","403","2.0.0","580593","p5lyc28scvl","moose","1","Which of these items did you see before?","","","","","Test","","true","[""stimuli\\EXEMPLAR\\USED\\Estapler1.jpg"",""stimuli\\EXEMPLAR\\USED\\Estapler2.jpg""]","stimuli\EXEMPLAR\USED\Estapler2.jpg","stimuli\EXEMPLAR\USED\Estapler2.jpg",""
"","1506","image-slider-response","404","2.0.0","582101","p5lyc28scvl","moose","5","stimuli\EXEMPLAR\USED\Estapler2.jpg","","","","","","","","","","","3"
"","1514","html-button-response","405","2.0.0","583616","p5lyc28scvl","moose","0","Which of these items did you see before?","","","","","Test","","true","[""stimuli\\STATE\\USED\\Sbreadslice2.jpg"",""stimuli\\STATE\\USED\\Sbreadslice1.jpg""]","stimuli\STATE\USED\Sbreadslice2.jpg","stimuli\STATE\USED\Sbreadslice2.jpg",""
"","1723","image-slider-response","406","2.0.0","585341","p5lyc28scvl","moose","5","stimuli\STATE\USED\Sbreadslice2.jpg","","","","","","","","","","","3"
"","1664","html-button-response","407","2.0.0","587006","p5lyc28scvl","moose","1","Which of these items did you see before?","","","","","Test","","true","[""stimuli\\EXEMPLAR\\USED\\Ebunny1.jpg"",""stimuli\\EXEMPLAR\\USED\\Ebunny2.jpg""]","stimuli\EXEMPLAR\USED\Ebunny2.jpg","stimuli\EXEMPLAR\USED\Ebunny2.jpg",""
"","2886","image-slider-response","408","2.0.0","589894","p5lyc28scvl","moose","5","stimuli\EXEMPLAR\USED\Ebunny2.jpg","","","","","","","","","","","3"
"","2668","html-button-response","409","2.0.0","592564","p5lyc28scvl","moose","0","Which of these items did you see before?","","","","","Test","","true","[""stimuli\\STATE\\USED\\Snapkins1.jpg"",""stimuli\\STATE\\USED\\Snapkins2.jpg""]","stimuli\STATE\USED\Snapkins1.jpg","stimuli\STATE\USED\Snapkins1.jpg",""
"","1707","image-slider-response","410","2.0.0","594273","p5lyc28scvl","moose","3","stimuli\STATE\USED\Snapkins1.jpg","","","","","","","","","","","3"
"","2819","html-button-response","411","2.0.0","597093","p5lyc28scvl","moose","0","Which of these items did you see before?","","","","","Test","","true","[""stimuli\\EXEMPLAR\\USED\\Ebicycle1.jpg"",""stimuli\\EXEMPLAR\\USED\\Ebicycle2.jpg""]","stimuli\EXEMPLAR\USED\Ebicycle1.jpg","stimuli\EXEMPLAR\USED\Ebicycle1.jpg",""
"","1490","image-slider-response","412","2.0.0","598586","p5lyc28scvl","moose","1","stimuli\EXEMPLAR\USED\Ebicycle1.jpg","","","","","","","","","","","3"
"","1844","html-button-response","413","2.0.0","600431","p5lyc28scvl","moose","0","Which of these items did you see before?","","","","","Test","","true","[""stimuli\\STATE\\USED\\Siron2.jpg"",""stimuli\\STATE\\USED\\Siron1.jpg""]","stimuli\STATE\USED\Siron2.jpg","stimuli\STATE\USED\Siron2.jpg",""
"","1588","image-slider-response","414","2.0.0","602021","p5lyc28scvl","moose","5","stimuli\STATE\USED\Siron2.jpg","","","","","","","","","","","3"
"","1454","html-button-response","415","2.0.0","603476","p5lyc28scvl","moose","1","Which of these items did you see before?","","","","","Test","","true","[""stimuli\\EXEMPLAR\\USED\\Eicecream2.jpg"",""stimuli\\EXEMPLAR\\USED\\Eicecream1.jpg""]","stimuli\EXEMPLAR\USED\Eicecream1.jpg","stimuli\EXEMPLAR\USED\Eicecream1.jpg",""
"","1385","image-slider-response","416","2.0.0","604864","p5lyc28scvl","moose","5","stimuli\EXEMPLAR\USED\Eicecream1.jpg","","","","","","","","","","","3"
"","1656","html-button-response","417","2.0.0","606521","p5lyc28scvl","moose","0","Which of these items did you see before?","","","","","Test","","true","[""stimuli\\EXEMPLAR\\USED\\Etrowel1.jpg"",""stimuli\\EXEMPLAR\\USED\\Etrowel2.jpg""]","stimuli\EXEMPLAR\USED\Etrowel1.jpg","stimuli\EXEMPLAR\USED\Etrowel1.jpg",""
"","1963","image-slider-response","418","2.0.0","608486","p5lyc28scvl","moose","3","stimuli\EXEMPLAR\USED\Etrowel1.jpg","","","","","","","","","","","3"
"","2436","html-button-response","419","2.0.0","610924","p5lyc28scvl","moose","0","Which of these items did you see before?","","","","","Test","","true","[""stimuli\\STATE\\USED\\Sbriefcasemetal2.JPG"",""stimuli\\STATE\\USED\\Sbriefcasemetal1.JPG""]","stimuli\STATE\USED\Sbriefcasemetal2.JPG","stimuli\STATE\USED\Sbriefcasemetal2.JPG",""
"","1678","image-slider-response","420","2.0.0","612603","p5lyc28scvl","moose","2","stimuli\STATE\USED\Sbriefcasemetal2.JPG","","","","","","","","","","","3"
"","1559","html-button-response","421","2.0.0","614163","p5lyc28scvl","moose","0","Which of these items did you see before?","","","","","Test","","true","[""stimuli\\EXEMPLAR\\USED\\Esunglasses1.jpg"",""stimuli\\EXEMPLAR\\USED\\Esunglasses2.jpg""]","stimuli\EXEMPLAR\USED\Esunglasses1.jpg","stimuli\EXEMPLAR\USED\Esunglasses1.jpg",""
"","1409","image-slider-response","422","2.0.0","615574","p5lyc28scvl","moose","4","stimuli\EXEMPLAR\USED\Esunglasses1.jpg","","","","","","","","","","","3"
"","1274","html-button-response","423","2.0.0","616848","p5lyc28scvl","moose","0","Which of these items did you see before?","","","","","Test","","true","[""stimuli\\EXEMPLAR\\USED\\Ewineglass1.jpg"",""stimuli\\EXEMPLAR\\USED\\Ewineglass2.jpg""]","stimuli\EXEMPLAR\USED\Ewineglass1.jpg","stimuli\EXEMPLAR\USED\Ewineglass1.jpg",""
"","1491","image-slider-response","424","2.0.0","618341","p5lyc28scvl","moose","4","stimuli\EXEMPLAR\USED\Ewineglass1.jpg","","","","","","","","","","","3"
"","3381","html-button-response","425","2.0.0","621723","p5lyc28scvl","moose","0","Which of these items did you see before?","","","","","Test","","true","[""stimuli\\STATE\\USED\\Spotpan1.JPG"",""stimuli\\STATE\\USED\\Spotpan2.JPG""]","stimuli\STATE\USED\Spotpan1.JPG","stimuli\STATE\USED\Spotpan1.JPG",""
"","3291","image-slider-response","426","2.0.0","625016","p5lyc28scvl","moose","5","stimuli\STATE\USED\Spotpan1.JPG","","","","","","","","","","","3"
"","1110","html-button-response","427","2.0.0","626127","p5lyc28scvl","moose","0","Which of these items did you see before?","","","","","Test","","true","[""stimuli\\STATE\\USED\\Sgiftbox2.jpg"",""stimuli\\STATE\\USED\\Sgiftbox1.jpg""]","stimuli\STATE\USED\Sgiftbox2.jpg","stimuli\STATE\USED\Sgiftbox2.jpg",""
"","1392","image-slider-response","428","2.0.0","627521","p5lyc28scvl","moose","5","stimuli\STATE\USED\Sgiftbox2.jpg","","","","","","","","","","","3"
"","1379","html-button-response","429","2.0.0","628901","p5lyc28scvl","moose","0","Which of these items did you see before?","","","","","Test","","true","[""stimuli\\EXEMPLAR\\USED\\Echopsticks1.jpg"",""stimuli\\EXEMPLAR\\USED\\Echopsticks2.jpg""]","stimuli\EXEMPLAR\USED\Echopsticks1.jpg","stimuli\EXEMPLAR\USED\Echopsticks1.jpg",""
"","2015","image-slider-response","430","2.0.0","630918","p5lyc28scvl","moose","5","stimuli\EXEMPLAR\USED\Echopsticks1.jpg","","","","","","","","","","","3"
"","1754","html-button-response","431","2.0.0","632674","p5lyc28scvl","moose","1","Which of these items did you see before?","","","","","Test","","true","[""stimuli\\STATE\\USED\\Shandshake1.JPG"",""stimuli\\STATE\\USED\\Shandshake2.JPG""]","stimuli\STATE\USED\Shandshake2.JPG","stimuli\STATE\USED\Shandshake2.JPG",""
"","1581","image-slider-response","432","2.0.0","634256","p5lyc28scvl","moose","5","stimuli\STATE\USED\Shandshake2.JPG","","","","","","","","","","","3"
"","1265","html-button-response","433","2.0.0","635523","p5lyc28scvl","moose","1","Which of these items did you see before?","","","","","Test","","true","[""stimuli\\STATE\\USED\\Sbooks1.JPG"",""stimuli\\STATE\\USED\\Sbooks2.JPG""]","stimuli\STATE\USED\Sbooks2.JPG","stimuli\STATE\USED\Sbooks2.JPG",""
"","1259","image-slider-response","434","2.0.0","636784","p5lyc28scvl","moose","3","stimuli\STATE\USED\Sbooks2.JPG","","","","","","","","","","","3"
"","1753","html-button-response","435","2.0.0","638539","p5lyc28scvl","moose","0","Which of these items did you see before?","","","","","Test","","true","[""stimuli\\STATE\\USED\\Sphoneold2.jpg"",""stimuli\\STATE\\USED\\Sphoneold1.jpg""]","stimuli\STATE\USED\Sphoneold2.jpg","stimuli\STATE\USED\Sphoneold2.jpg",""
"","1963","image-slider-response","436","2.0.0","640503","p5lyc28scvl","moose","1","stimuli\STATE\USED\Sphoneold2.jpg","","","","","","","","","","","3"
"","1380","html-button-response","437","2.0.0","641884","p5lyc28scvl","moose","0","Which of these items did you see before?","","","","","Test","","true","[""stimuli\\STATE\\USED\\Slockbox1.jpg"",""stimuli\\STATE\\USED\\Slockbox2.jpg""]","stimuli\STATE\USED\Slockbox1.jpg","stimuli\STATE\USED\Slockbox1.jpg",""
"","1385","image-slider-response","438","2.0.0","643271","p5lyc28scvl","moose","4","stimuli\STATE\USED\Slockbox1.jpg","","","","","","","","","","","3"
"","1739","html-button-response","439","2.0.0","645011","p5lyc28scvl","moose","0","Which of these items did you see before?","","","","","Test","","true","[""stimuli\\STATE\\USED\\Spicnicbasket1.jpg"",""stimuli\\STATE\\USED\\Spicnicbasket2.jpg""]","stimuli\STATE\USED\Spicnicbasket1.jpg","stimuli\STATE\USED\Spicnicbasket1.jpg",""
"","1580","image-slider-response","440","2.0.0","646594","p5lyc28scvl","moose","4","stimuli\STATE\USED\Spicnicbasket1.jpg","","","","","","","","","","","3"
"","1896","html-button-response","441","2.0.0","648491","p5lyc28scvl","moose","1","Which of these items did you see before?","","","","","Test","","true","[""stimuli\\EXEMPLAR\\USED\\Eballoon1.jpg"",""stimuli\\EXEMPLAR\\USED\\Eballoon2.jpg""]","stimuli\EXEMPLAR\USED\Eballoon2.jpg","stimuli\EXEMPLAR\USED\Eballoon2.jpg",""
"","1445","image-slider-response","442","2.0.0","649939","p5lyc28scvl","moose","1","stimuli\EXEMPLAR\USED\Eballoon2.jpg","","","","","","","","","","","3"
"","2969","html-button-response","443","2.0.0","652909","p5lyc28scvl","moose","0","Which of these items did you see before?","","","","","Test","","true","[""stimuli\\STATE\\USED\\Sdonut1.jpg"",""stimuli\\STATE\\USED\\Sdonut2.jpg""]","stimuli\STATE\USED\Sdonut1.jpg","stimuli\STATE\USED\Sdonut1.jpg",""
"","1234","image-slider-response","444","2.0.0","654146","p5lyc28scvl","moose","4","stimuli\STATE\USED\Sdonut1.jpg","","","","","","","","","","","3"
"","1529","html-button-response","445","2.0.0","655676","p5lyc28scvl","moose","1","Which of these items did you see before?","","","","","Test","","true","[""stimuli\\EXEMPLAR\\USED\\Egame1.jpg"",""stimuli\\EXEMPLAR\\USED\\Egame2.jpg""]","stimuli\EXEMPLAR\USED\Egame2.jpg","stimuli\EXEMPLAR\USED\Egame2.jpg",""
"","1588","image-slider-response","446","2.0.0","657266","p5lyc28scvl","moose","3","stimuli\EXEMPLAR\USED\Egame2.jpg","","","","","","","","","","","3"
"","2938","html-button-response","447","2.0.0","660206","p5lyc28scvl","moose","1","Which of these items did you see before?","","","","","Test","","true","[""stimuli\\EXEMPLAR\\USED\\Epeppers2.jpg"",""stimuli\\EXEMPLAR\\USED\\Epeppers1.jpg""]","stimuli\EXEMPLAR\USED\Epeppers1.jpg","stimuli\EXEMPLAR\USED\Epeppers1.jpg",""
"","1686","image-slider-response","448","2.0.0","661894","p5lyc28scvl","moose","5","stimuli\EXEMPLAR\USED\Epeppers1.jpg","","","","","","","","","","","3"
"","231543","survey-text","449","2.0.0","893456","p5lyc28scvl","moose","{""experiment_purpose"":""I think this experiment was about how well people are able to remember slight differences in images, and/or if certain images are inherently easier to remember or distinguish."",""Q1"":""A lot of the images that I was asked to distinguish were already images that stood out to me more and had an easier time to memorize."",""technical_issues"":""Not technically an issue but I had taken the version of this experiment before it was fixed and I still had remembered some of these images from the first time I took it, which likely affected my data (i.e selecting an image I saw from the first time when I'd actually seen a different image this second time)""}","","","","","","","","","","","",""
