"success","rt","trial_type","trial_index","plugin_version","time_elapsed","random_id","participant","response","stimulus","timeout","failed_images","failed_audio","failed_video","trial_phase","repeated","correct","choice_images","correct_image","choice","slider_start"
"true","9242","fullscreen","0","2.0.0","10250","p6labg5etft","flamingo","","","","","","","","","","","","",""
"","10069","survey-text","1","2.0.0","20323","p6labg5etft","flamingo","{""participant_id"":""flamingo""}","","","","","","","","","","","",""
"","1654","html-keyboard-response","2","2.0.0","21978","p6labg5etft","flamingo"," ","<p>Welcome to the Massive Memory Experiment. Press any key to move on. </p>","","","","","","","","","","",""
"","31459","html-keyboard-response","3","2.0.0","53438","p6labg5etft","flamingo"," ","
      <div style='width:900px;margin: auto;'><p>In the first section you will see a stream of images, with fixation crosses in between each image.</p>
      <p>Each image will remain on screen for 2 seconds. Your job is to detect images that you have seen before within the experiment. Whenever you see an image that you have seen previously <b>at any point in the stream of images</b>, press the spacebar.</p>
      <p>We will let you know if you have correctly or falsely clicked the spacebar on an image by changing the color of the fixation cross.</p>
      <p>If you press the spacebar correctly (the image really did appear earlier), the fixation cross will turn green. If you pressed the spacebar incorrectly, the fixation cross will turn red.</p>
      <p>Please watch carefully to detect the images that show up again!</p>
      <p>Press any key to start.</p></div>
    ","","","","","","","","","","",""
"true","","preload","4","2.0.0","54328","p6labg5etft","flamingo","","","false","[]","[]","[]","","","","","","",""
"","null","image-keyboard-response","5","2.0.0","56331","p6labg5etft","flamingo","null","stimuli\STATE\USED\Smedicaltape1.jpg","","","","","Memory","false","null","","","",""
"","null","html-keyboard-response","6","2.0.0","56833","p6labg5etft","flamingo","null","<div style=""font-size:60px; color: black;"">+</div>","","","","","","","","","","",""
"","null","image-keyboard-response","7","2.0.0","58837","p6labg5etft","flamingo","null","stimuli\STATE\USED\Spatiotable2.jpg","","","","","Memory","false","null","","","",""
"","null","html-keyboard-response","8","2.0.0","59339","p6labg5etft","flamingo","null","<div style=""font-size:60px; color: black;"">+</div>","","","","","","","","","","",""
"","null","image-keyboard-response","9","2.0.0","61343","p6labg5etft","flamingo","null","stimuli\STATE\USED\Sbarnmailbox2.jpg","","","","","Memory","false","null","","","",""
"","null","html-keyboard-response","10","2.0.0","61845","p6labg5etft","flamingo","null","<div style=""font-size:60px; color: black;"">+</div>","","","","","","","","","","",""
"","null","image-keyboard-response","11","2.0.0","63847","p6labg5etft","flamingo","null","stimuli\EXEMPLAR\USED\Eelectricbass2.jpg","","","","","Memory","false","null","","","",""
"","null","html-keyboard-response","12","2.0.0","64351","p6labg5etft","flamingo","null","<div style=""font-size:60px; color: black;"">+</div>","","","","","","","","","","",""
"","659","image-keyboard-response","13","2.0.0","66354","p6labg5etft","flamingo"," ","stimuli\STATE\USED\Smedicaltape1.jpg","","","","","Memory","true","true","","","",""
"","null","html-keyboard-response","14","2.0.0","66857","p6labg5etft","flamingo","null","<div style=""font-size:60px; color: green;"">+</div>","","","","","","","","","","",""
"","null","image-keyboard-response","15","2.0.0","68860","p6labg5etft","flamingo","null","stimuli\EXEMPLAR\USED\Ebinoculars2.jpg","","","","","Memory","false","null","","","",""
"","null","html-keyboard-response","16","2.0.0","69363","p6labg5etft","flamingo","null","<div style=""font-size:60px; color: black;"">+</div>","","","","","","","","","","",""
"","null","image-keyboard-response","17","2.0.0","71373","p6labg5etft","flamingo","null","stimuli\STATE\USED\Siron1.jpg","","","","","Memory","false","null","","","",""
"","null","html-keyboard-response","18","2.0.0","71876","p6labg5etft","flamingo","null","<div style=""font-size:60px; color: black;"">+</div>","","","","","","","","","","",""
"","null","image-keyboard-response","19","2.0.0","73879","p6labg5etft","flamingo","null","stimuli\EXEMPLAR\USED\Echopsticks1.jpg","","","","","Memory","false","null","","","",""
"","null","html-keyboard-response","20","2.0.0","74382","p6labg5etft","flamingo","null","<div style=""font-size:60px; color: black;"">+</div>","","","","","","","","","","",""
"","null","image-keyboard-response","21","2.0.0","76386","p6labg5etft","flamingo","null","stimuli\STATE\USED\Speppers1.jpg","","","","","Memory","false","null","","","",""
"","null","html-keyboard-response","22","2.0.0","76888","p6labg5etft","flamingo","null","<div style=""font-size:60px; color: black;"">+</div>","","","","","","","","","","",""
"","1064","image-keyboard-response","23","2.0.0","78892","p6labg5etft","flamingo"," ","stimuli\EXEMPLAR\USED\Ebinoculars2.jpg","","","","","Memory","true","true","","","",""
"","null","html-keyboard-response","24","2.0.0","79394","p6labg5etft","flamingo","null","<div style=""font-size:60px; color: green;"">+</div>","","","","","","","","","","",""
"","null","image-keyboard-response","25","2.0.0","81397","p6labg5etft","flamingo","null","stimuli\STATE\USED\Stiger2.jpg","","","","","Memory","false","null","","","",""
"","null","html-keyboard-response","26","2.0.0","81899","p6labg5etft","flamingo","null","<div style=""font-size:60px; color: black;"">+</div>","","","","","","","","","","",""
"","null","image-keyboard-response","27","2.0.0","83902","p6labg5etft","flamingo","null","stimuli\STATE\USED\Spumpkinpie2.jpg","","","","","Memory","false","null","","","",""
"","null","html-keyboard-response","28","2.0.0","84406","p6labg5etft","flamingo","null","<div style=""font-size:60px; color: black;"">+</div>","","","","","","","","","","",""
"","null","image-keyboard-response","29","2.0.0","86408","p6labg5etft","flamingo","null","stimuli\STATE\USED\Sapplesredbasket1.JPG","","","","","Memory","false","null","","","",""
"","null","html-keyboard-response","30","2.0.0","86910","p6labg5etft","flamingo","null","<div style=""font-size:60px; color: black;"">+</div>","","","","","","","","","","",""
"","null","image-keyboard-response","31","2.0.0","88913","p6labg5etft","flamingo","null","stimuli\EXEMPLAR\USED\Ehanger1.jpg","","","","","Memory","false","null","","","",""
"","null","html-keyboard-response","32","2.0.0","89416","p6labg5etft","flamingo","null","<div style=""font-size:60px; color: black;"">+</div>","","","","","","","","","","",""
"","794","image-keyboard-response","33","2.0.0","91419","p6labg5etft","flamingo"," ","stimuli\STATE\USED\Stiger2.jpg","","","","","Memory","true","true","","","",""
"","null","html-keyboard-response","34","2.0.0","91922","p6labg5etft","flamingo","null","<div style=""font-size:60px; color: green;"">+</div>","","","","","","","","","","",""
"","null","image-keyboard-response","35","2.0.0","93924","p6labg5etft","flamingo","null","stimuli\EXEMPLAR\USED\Eplate2.jpg","","","","","Memory","false","null","","","",""
"","null","html-keyboard-response","36","2.0.0","94427","p6labg5etft","flamingo","null","<div style=""font-size:60px; color: black;"">+</div>","","","","","","","","","","",""
"","null","image-keyboard-response","37","2.0.0","96430","p6labg5etft","flamingo","null","stimuli\EXEMPLAR\USED\Ehorn1.jpg","","","","","Memory","false","null","","","",""
"","null","html-keyboard-response","38","2.0.0","96933","p6labg5etft","flamingo","null","<div style=""font-size:60px; color: black;"">+</div>","","","","","","","","","","",""
"","null","image-keyboard-response","39","2.0.0","98936","p6labg5etft","flamingo","null","stimuli\STATE\USED\Saccordionsmall2.JPG","","","","","Memory","false","null","","","",""
"","null","html-keyboard-response","40","2.0.0","99438","p6labg5etft","flamingo","null","<div style=""font-size:60px; color: black;"">+</div>","","","","","","","","","","",""
"","null","image-keyboard-response","41","2.0.0","101441","p6labg5etft","flamingo","null","stimuli\STATE\USED\Sbooks2.JPG","","","","","Memory","false","null","","","",""
"","null","html-keyboard-response","42","2.0.0","101944","p6labg5etft","flamingo","null","<div style=""font-size:60px; color: black;"">+</div>","","","","","","","","","","",""
"","693","image-keyboard-response","43","2.0.0","103947","p6labg5etft","flamingo"," ","stimuli\EXEMPLAR\USED\Eplate2.jpg","","","","","Memory","true","true","","","",""
"","null","html-keyboard-response","44","2.0.0","104451","p6labg5etft","flamingo","null","<div style=""font-size:60px; color: green;"">+</div>","","","","","","","","","","",""
"","null","image-keyboard-response","45","2.0.0","106454","p6labg5etft","flamingo","null","stimuli\STATE\USED\Shairbrush2.jpg","","","","","Memory","false","null","","","",""
"","null","html-keyboard-response","46","2.0.0","106957","p6labg5etft","flamingo","null","<div style=""font-size:60px; color: black;"">+</div>","","","","","","","","","","",""
"","null","image-keyboard-response","47","2.0.0","108960","p6labg5etft","flamingo","null","stimuli\EXEMPLAR\USED\Eicecream2.jpg","","","","","Memory","false","null","","","",""
"","null","html-keyboard-response","48","2.0.0","109463","p6labg5etft","flamingo","null","<div style=""font-size:60px; color: black;"">+</div>","","","","","","","","","","",""
"","null","image-keyboard-response","49","2.0.0","111467","p6labg5etft","flamingo","null","stimuli\STATE\USED\Sseatbelt2.jpg","","","","","Memory","false","null","","","",""
"","null","html-keyboard-response","50","2.0.0","111970","p6labg5etft","flamingo","null","<div style=""font-size:60px; color: black;"">+</div>","","","","","","","","","","",""
"","null","image-keyboard-response","51","2.0.0","113972","p6labg5etft","flamingo","null","stimuli\STATE\USED\Spestle1.jpg","","","","","Memory","false","null","","","",""
"","null","html-keyboard-response","52","2.0.0","114475","p6labg5etft","flamingo","null","<div style=""font-size:60px; color: black;"">+</div>","","","","","","","","","","",""
"","null","image-keyboard-response","53","2.0.0","116477","p6labg5etft","flamingo","null","stimuli\EXEMPLAR\USED\Ehotairballoon2.jpg","","","","","Memory","false","null","","","",""
"","null","html-keyboard-response","54","2.0.0","116980","p6labg5etft","flamingo","null","<div style=""font-size:60px; color: black;"">+</div>","","","","","","","","","","",""
"","null","image-keyboard-response","55","2.0.0","118983","p6labg5etft","flamingo","null","stimuli\EXEMPLAR\USED\Ewheelchair1.jpg","","","","","Memory","false","null","","","",""
"","null","html-keyboard-response","56","2.0.0","119485","p6labg5etft","flamingo","null","<div style=""font-size:60px; color: black;"">+</div>","","","","","","","","","","",""
"","null","image-keyboard-response","57","2.0.0","121489","p6labg5etft","flamingo","null","stimuli\EXEMPLAR\USED\Eholepunch1.jpg","","","","","Memory","false","null","","","",""
"","null","html-keyboard-response","58","2.0.0","121991","p6labg5etft","flamingo","null","<div style=""font-size:60px; color: black;"">+</div>","","","","","","","","","","",""
"","793","image-keyboard-response","59","2.0.0","123994","p6labg5etft","flamingo"," ","stimuli\STATE\USED\Spestle1.jpg","","","","","Memory","true","true","","","",""
"","null","html-keyboard-response","60","2.0.0","124496","p6labg5etft","flamingo","null","<div style=""font-size:60px; color: green;"">+</div>","","","","","","","","","","",""
"","null","image-keyboard-response","61","2.0.0","126500","p6labg5etft","flamingo","null","stimuli\EXEMPLAR\USED\Eballoon1.jpg","","","","","Memory","false","null","","","",""
"","null","html-keyboard-response","62","2.0.0","127001","p6labg5etft","flamingo","null","<div style=""font-size:60px; color: black;"">+</div>","","","","","","","","","","",""
"","null","image-keyboard-response","63","2.0.0","129005","p6labg5etft","flamingo","null","stimuli\STATE\USED\Shandsign2.JPG","","","","","Memory","false","null","","","",""
"","null","html-keyboard-response","64","2.0.0","129508","p6labg5etft","flamingo","null","<div style=""font-size:60px; color: black;"">+</div>","","","","","","","","","","",""
"","null","image-keyboard-response","65","2.0.0","131511","p6labg5etft","flamingo","null","stimuli\EXEMPLAR\USED\Ebread1.jpg","","","","","Memory","false","null","","","",""
"","null","html-keyboard-response","66","2.0.0","132014","p6labg5etft","flamingo","null","<div style=""font-size:60px; color: black;"">+</div>","","","","","","","","","","",""
"","null","image-keyboard-response","67","2.0.0","134016","p6labg5etft","flamingo","null","stimuli\STATE\USED\Spotpan2.JPG","","","","","Memory","false","null","","","",""
"","null","html-keyboard-response","68","2.0.0","134519","p6labg5etft","flamingo","null","<div style=""font-size:60px; color: black;"">+</div>","","","","","","","","","","",""
"","null","image-keyboard-response","69","2.0.0","136522","p6labg5etft","flamingo","null","stimuli\EXEMPLAR\USED\Etrowel2.jpg","","","","","Memory","false","null","","","",""
"","null","html-keyboard-response","70","2.0.0","137025","p6labg5etft","flamingo","null","<div style=""font-size:60px; color: black;"">+</div>","","","","","","","","","","",""
"","null","image-keyboard-response","71","2.0.0","139028","p6labg5etft","flamingo","null","stimuli\STATE\USED\Sscanner1.JPG","","","","","Memory","false","null","","","",""
"","null","html-keyboard-response","72","2.0.0","139530","p6labg5etft","flamingo","null","<div style=""font-size:60px; color: black;"">+</div>","","","","","","","","","","",""
"","null","image-keyboard-response","73","2.0.0","141533","p6labg5etft","flamingo","null","stimuli\EXEMPLAR\USED\Eremover2.jpg","","","","","Memory","false","null","","","",""
"","null","html-keyboard-response","74","2.0.0","142036","p6labg5etft","flamingo","null","<div style=""font-size:60px; color: black;"">+</div>","","","","","","","","","","",""
"","null","image-keyboard-response","75","2.0.0","144038","p6labg5etft","flamingo","null","stimuli\STATE\USED\Sdrum1.jpg","","","","","Memory","false","null","","","",""
"","null","html-keyboard-response","76","2.0.0","144541","p6labg5etft","flamingo","null","<div style=""font-size:60px; color: black;"">+</div>","","","","","","","","","","",""
"","null","image-keyboard-response","77","2.0.0","146543","p6labg5etft","flamingo","null","stimuli\EXEMPLAR\USED\Eturtle1.jpg","","","","","Memory","false","null","","","",""
"","null","html-keyboard-response","78","2.0.0","147046","p6labg5etft","flamingo","null","<div style=""font-size:60px; color: black;"">+</div>","","","","","","","","","","",""
"","null","image-keyboard-response","79","2.0.0","149049","p6labg5etft","flamingo","null","stimuli\STATE\USED\Shandshake1.JPG","","","","","Memory","false","null","","","",""
"","null","html-keyboard-response","80","2.0.0","149551","p6labg5etft","flamingo","null","<div style=""font-size:60px; color: black;"">+</div>","","","","","","","","","","",""
"","null","image-keyboard-response","81","2.0.0","151555","p6labg5etft","flamingo","null","stimuli\STATE\USED\Schinesefoodbox1.jpg","","","","","Memory","false","null","","","",""
"","null","html-keyboard-response","82","2.0.0","152058","p6labg5etft","flamingo","null","<div style=""font-size:60px; color: black;"">+</div>","","","","","","","","","","",""
"","null","image-keyboard-response","83","2.0.0","154059","p6labg5etft","flamingo","null","stimuli\EXEMPLAR\USED\Echocolatebar1.jpg","","","","","Memory","false","null","","","",""
"","null","html-keyboard-response","84","2.0.0","154562","p6labg5etft","flamingo","null","<div style=""font-size:60px; color: black;"">+</div>","","","","","","","","","","",""
"","null","image-keyboard-response","85","2.0.0","156565","p6labg5etft","flamingo","null","stimuli\EXEMPLAR\USED\Elog2.jpg","","","","","Memory","false","null","","","",""
"","null","html-keyboard-response","86","2.0.0","157067","p6labg5etft","flamingo","null","<div style=""font-size:60px; color: black;"">+</div>","","","","","","","","","","",""
"","null","image-keyboard-response","87","2.0.0","159070","p6labg5etft","flamingo","null","stimuli\STATE\USED\Sbrie1.JPG","","","","","Memory","false","null","","","",""
"","null","html-keyboard-response","88","2.0.0","159573","p6labg5etft","flamingo","null","<div style=""font-size:60px; color: black;"">+</div>","","","","","","","","","","",""
"","1013","image-keyboard-response","89","2.0.0","161577","p6labg5etft","flamingo"," ","stimuli\STATE\USED\Schinesefoodbox1.jpg","","","","","Memory","true","true","","","",""
"","null","html-keyboard-response","90","2.0.0","162080","p6labg5etft","flamingo","null","<div style=""font-size:60px; color: green;"">+</div>","","","","","","","","","","",""
"","null","image-keyboard-response","91","2.0.0","164082","p6labg5etft","flamingo","null","stimuli\STATE\USED\Spolarbear2.jpg","","","","","Memory","false","null","","","",""
"","null","html-keyboard-response","92","2.0.0","164585","p6labg5etft","flamingo","null","<div style=""font-size:60px; color: black;"">+</div>","","","","","","","","","","",""
"","null","image-keyboard-response","93","2.0.0","166588","p6labg5etft","flamingo","null","stimuli\EXEMPLAR\USED\Ebracelet1.jpg","","","","","Memory","false","null","","","",""
"","null","html-keyboard-response","94","2.0.0","167090","p6labg5etft","flamingo","null","<div style=""font-size:60px; color: black;"">+</div>","","","","","","","","","","",""
"","null","image-keyboard-response","95","2.0.0","169092","p6labg5etft","flamingo","null","stimuli\EXEMPLAR\USED\Escroll2.jpg","","","","","Memory","false","null","","","",""
"","null","html-keyboard-response","96","2.0.0","169595","p6labg5etft","flamingo","null","<div style=""font-size:60px; color: black;"">+</div>","","","","","","","","","","",""
"","null","image-keyboard-response","97","2.0.0","171597","p6labg5etft","flamingo","null","stimuli\STATE\USED\Slockbox1.jpg","","","","","Memory","false","null","","","",""
"","null","html-keyboard-response","98","2.0.0","172100","p6labg5etft","flamingo","null","<div style=""font-size:60px; color: black;"">+</div>","","","","","","","","","","",""
"","null","image-keyboard-response","99","2.0.0","174103","p6labg5etft","flamingo","null","stimuli\EXEMPLAR\USED\Emedal2.jpg","","","","","Memory","false","null","","","",""
"","null","html-keyboard-response","100","2.0.0","174606","p6labg5etft","flamingo","null","<div style=""font-size:60px; color: black;"">+</div>","","","","","","","","","","",""
"","749","image-keyboard-response","101","2.0.0","176609","p6labg5etft","flamingo"," ","stimuli\EXEMPLAR\USED\Ebracelet1.jpg","","","","","Memory","true","true","","","",""
"","null","html-keyboard-response","102","2.0.0","177112","p6labg5etft","flamingo","null","<div style=""font-size:60px; color: green;"">+</div>","","","","","","","","","","",""
"","null","image-keyboard-response","103","2.0.0","179115","p6labg5etft","flamingo","null","stimuli\STATE\USED\Sphoneold1.jpg","","","","","Memory","false","null","","","",""
"","null","html-keyboard-response","104","2.0.0","179617","p6labg5etft","flamingo","null","<div style=""font-size:60px; color: black;"">+</div>","","","","","","","","","","",""
"","null","image-keyboard-response","105","2.0.0","181620","p6labg5etft","flamingo","null","stimuli\STATE\USED\Sjuiceglass1.JPG","","","","","Memory","false","null","","","",""
"","null","html-keyboard-response","106","2.0.0","182123","p6labg5etft","flamingo","null","<div style=""font-size:60px; color: black;"">+</div>","","","","","","","","","","",""
"","2689","html-button-response","107","2.0.0","184814","p6labg5etft","flamingo","0","Are you still there?","","","","","Attention Check","","","","","",""
"","null","image-keyboard-response","108","2.0.0","186817","p6labg5etft","flamingo","null","stimuli\STATE\USED\Sscissors2.JPG","","","","","Memory","false","null","","","",""
"","null","html-keyboard-response","109","2.0.0","187320","p6labg5etft","flamingo","null","<div style=""font-size:60px; color: black;"">+</div>","","","","","","","","","","",""
"","null","image-keyboard-response","110","2.0.0","189323","p6labg5etft","flamingo","null","stimuli\EXEMPLAR\USED\Ebunny1.jpg","","","","","Memory","false","null","","","",""
"","null","html-keyboard-response","111","2.0.0","189825","p6labg5etft","flamingo","null","<div style=""font-size:60px; color: black;"">+</div>","","","","","","","","","","",""
"","null","image-keyboard-response","112","2.0.0","191827","p6labg5etft","flamingo","null","stimuli\EXEMPLAR\USED\Ebrick1.jpg","","","","","Memory","false","null","","","",""
"","null","html-keyboard-response","113","2.0.0","192330","p6labg5etft","flamingo","null","<div style=""font-size:60px; color: black;"">+</div>","","","","","","","","","","",""
"","null","image-keyboard-response","114","2.0.0","194334","p6labg5etft","flamingo","null","stimuli\EXEMPLAR\USED\Epotatochips1.jpg","","","","","Memory","false","null","","","",""
"","null","html-keyboard-response","115","2.0.0","194837","p6labg5etft","flamingo","null","<div style=""font-size:60px; color: black;"">+</div>","","","","","","","","","","",""
"","null","image-keyboard-response","116","2.0.0","196840","p6labg5etft","flamingo","null","stimuli\EXEMPLAR\USED\Esunglasses2.jpg","","","","","Memory","false","null","","","",""
"","null","html-keyboard-response","117","2.0.0","197343","p6labg5etft","flamingo","null","<div style=""font-size:60px; color: black;"">+</div>","","","","","","","","","","",""
"","null","image-keyboard-response","118","2.0.0","199346","p6labg5etft","flamingo","null","stimuli\STATE\USED\Sbureau2.JPG","","","","","Memory","false","null","","","",""
"","null","html-keyboard-response","119","2.0.0","199848","p6labg5etft","flamingo","null","<div style=""font-size:60px; color: black;"">+</div>","","","","","","","","","","",""
"","null","image-keyboard-response","120","2.0.0","201849","p6labg5etft","flamingo","null","stimuli\STATE\USED\Sschoolbag1.JPG","","","","","Memory","false","null","","","",""
"","null","html-keyboard-response","121","2.0.0","202353","p6labg5etft","flamingo","null","<div style=""font-size:60px; color: black;"">+</div>","","","","","","","","","","",""
"","null","image-keyboard-response","122","2.0.0","204356","p6labg5etft","flamingo","null","stimuli\STATE\USED\Shandmirror2.jpg","","","","","Memory","false","null","","","",""
"","null","html-keyboard-response","123","2.0.0","204858","p6labg5etft","flamingo","null","<div style=""font-size:60px; color: black;"">+</div>","","","","","","","","","","",""
"","null","image-keyboard-response","124","2.0.0","206861","p6labg5etft","flamingo","null","stimuli\STATE\USED\Sbook1.JPG","","","","","Memory","false","null","","","",""
"","null","html-keyboard-response","125","2.0.0","207363","p6labg5etft","flamingo","null","<div style=""font-size:60px; color: black;"">+</div>","","","","","","","","","","",""
"","null","image-keyboard-response","126","2.0.0","209367","p6labg5etft","flamingo","null","stimuli\EXEMPLAR\USED\Egame1.jpg","","","","","Memory","false","null","","","",""
"","null","html-keyboard-response","127","2.0.0","209870","p6labg5etft","flamingo","null","<div style=""font-size:60px; color: black;"">+</div>","","","","","","","","","","",""
"","null","image-keyboard-response","128","2.0.0","211872","p6labg5etft","flamingo","null","stimuli\EXEMPLAR\USED\Estarfish1.jpg","","","","","Memory","false","null","","","",""
"","null","html-keyboard-response","129","2.0.0","212376","p6labg5etft","flamingo","null","<div style=""font-size:60px; color: black;"">+</div>","","","","","","","","","","",""
"","null","image-keyboard-response","130","2.0.0","214379","p6labg5etft","flamingo","null","stimuli\EXEMPLAR\USED\Etoykeys2.JPG","","","","","Memory","false","null","","","",""
"","null","html-keyboard-response","131","2.0.0","214880","p6labg5etft","flamingo","null","<div style=""font-size:60px; color: black;"">+</div>","","","","","","","","","","",""
"","null","image-keyboard-response","132","2.0.0","216883","p6labg5etft","flamingo","null","stimuli\EXEMPLAR\USED\Ehoe2.jpg","","","","","Memory","false","null","","","",""
"","null","html-keyboard-response","133","2.0.0","217385","p6labg5etft","flamingo","null","<div style=""font-size:60px; color: black;"">+</div>","","","","","","","","","","",""
"","null","image-keyboard-response","134","2.0.0","219387","p6labg5etft","flamingo","null","stimuli\STATE\USED\Sbriefcasemetal1.JPG","","","","","Memory","false","null","","","",""
"","null","html-keyboard-response","135","2.0.0","219890","p6labg5etft","flamingo","null","<div style=""font-size:60px; color: black;"">+</div>","","","","","","","","","","",""
"","null","image-keyboard-response","136","2.0.0","221893","p6labg5etft","flamingo","null","stimuli\EXEMPLAR\USED\Etoywrench2.jpg","","","","","Memory","false","null","","","",""
"","null","html-keyboard-response","137","2.0.0","222395","p6labg5etft","flamingo","null","<div style=""font-size:60px; color: black;"">+</div>","","","","","","","","","","",""
"","null","image-keyboard-response","138","2.0.0","224405","p6labg5etft","flamingo","null","stimuli\STATE\USED\Sdresser1.jpg","","","","","Memory","false","null","","","",""
"","null","html-keyboard-response","139","2.0.0","224908","p6labg5etft","flamingo","null","<div style=""font-size:60px; color: black;"">+</div>","","","","","","","","","","",""
"","null","image-keyboard-response","140","2.0.0","226911","p6labg5etft","flamingo","null","stimuli\STATE\USED\Sredcabbage1.jpg","","","","","Memory","false","null","","","",""
"","null","html-keyboard-response","141","2.0.0","227414","p6labg5etft","flamingo","null","<div style=""font-size:60px; color: black;"">+</div>","","","","","","","","","","",""
"","857","image-keyboard-response","142","2.0.0","229417","p6labg5etft","flamingo"," ","stimuli\STATE\USED\Sbriefcasemetal1.JPG","","","","","Memory","true","true","","","",""
"","null","html-keyboard-response","143","2.0.0","229919","p6labg5etft","flamingo","null","<div style=""font-size:60px; color: green;"">+</div>","","","","","","","","","","",""
"","null","image-keyboard-response","144","2.0.0","231921","p6labg5etft","flamingo","null","stimuli\STATE\USED\Sbreadslice1.jpg","","","","","Memory","false","null","","","",""
"","null","html-keyboard-response","145","2.0.0","232424","p6labg5etft","flamingo","null","<div style=""font-size:60px; color: black;"">+</div>","","","","","","","","","","",""
"","null","image-keyboard-response","146","2.0.0","234427","p6labg5etft","flamingo","null","stimuli\STATE\USED\Scontainer1.JPG","","","","","Memory","false","null","","","",""
"","null","html-keyboard-response","147","2.0.0","234930","p6labg5etft","flamingo","null","<div style=""font-size:60px; color: black;"">+</div>","","","","","","","","","","",""
"","null","image-keyboard-response","148","2.0.0","236932","p6labg5etft","flamingo","null","stimuli\EXEMPLAR\USED\Emicroscope2.jpg","","","","","Memory","false","null","","","",""
"","null","html-keyboard-response","149","2.0.0","237434","p6labg5etft","flamingo","null","<div style=""font-size:60px; color: black;"">+</div>","","","","","","","","","","",""
"","null","image-keyboard-response","150","2.0.0","239437","p6labg5etft","flamingo","null","stimuli\STATE\USED\Scooker2.jpg","","","","","Memory","false","null","","","",""
"","null","html-keyboard-response","151","2.0.0","239940","p6labg5etft","flamingo","null","<div style=""font-size:60px; color: black;"">+</div>","","","","","","","","","","",""
"","null","image-keyboard-response","152","2.0.0","241943","p6labg5etft","flamingo","null","stimuli\STATE\USED\Sbrushes2.jpg","","","","","Memory","false","null","","","",""
"","null","html-keyboard-response","153","2.0.0","242446","p6labg5etft","flamingo","null","<div style=""font-size:60px; color: black;"">+</div>","","","","","","","","","","",""
"","null","image-keyboard-response","154","2.0.0","244449","p6labg5etft","flamingo","null","stimuli\STATE\USED\Scateringtray2.jpg","","","","","Memory","false","null","","","",""
"","null","html-keyboard-response","155","2.0.0","244952","p6labg5etft","flamingo","null","<div style=""font-size:60px; color: black;"">+</div>","","","","","","","","","","",""
"","null","image-keyboard-response","156","2.0.0","246956","p6labg5etft","flamingo","null","stimuli\EXEMPLAR\USED\Eguitar2.jpg","","","","","Memory","false","null","","","",""
"","null","html-keyboard-response","157","2.0.0","247458","p6labg5etft","flamingo","null","<div style=""font-size:60px; color: black;"">+</div>","","","","","","","","","","",""
"","null","image-keyboard-response","158","2.0.0","249462","p6labg5etft","flamingo","null","stimuli\EXEMPLAR\USED\Ecamera1.jpg","","","","","Memory","false","null","","","",""
"","null","html-keyboard-response","159","2.0.0","249965","p6labg5etft","flamingo","null","<div style=""font-size:60px; color: black;"">+</div>","","","","","","","","","","",""
"","null","image-keyboard-response","160","2.0.0","251967","p6labg5etft","flamingo","null","stimuli\EXEMPLAR\USED\Eheadphones1.jpg","","","","","Memory","false","null","","","",""
"","null","html-keyboard-response","161","2.0.0","252469","p6labg5etft","flamingo","null","<div style=""font-size:60px; color: black;"">+</div>","","","","","","","","","","",""
"","null","image-keyboard-response","162","2.0.0","254473","p6labg5etft","flamingo","null","stimuli\EXEMPLAR\USED\Echeeses1.jpg","","","","","Memory","false","null","","","",""
"","null","html-keyboard-response","163","2.0.0","254975","p6labg5etft","flamingo","null","<div style=""font-size:60px; color: black;"">+</div>","","","","","","","","","","",""
"","null","image-keyboard-response","164","2.0.0","256978","p6labg5etft","flamingo","null","stimuli\STATE\USED\Srhino2.jpg","","","","","Memory","false","null","","","",""
"","null","html-keyboard-response","165","2.0.0","257480","p6labg5etft","flamingo","null","<div style=""font-size:60px; color: black;"">+</div>","","","","","","","","","","",""
"","505","image-keyboard-response","166","2.0.0","259484","p6labg5etft","flamingo"," ","stimuli\STATE\USED\Sdoughhands2.jpg","","","","","Memory","false","false","","","",""
"","null","html-keyboard-response","167","2.0.0","259986","p6labg5etft","flamingo","null","<div style=""font-size:60px; color: red;"">+</div>","","","","","","","","","","",""
"","null","image-keyboard-response","168","2.0.0","261989","p6labg5etft","flamingo","null","stimuli\EXEMPLAR\USED\Eremote2.jpg","","","","","Memory","false","null","","","",""
"","null","html-keyboard-response","169","2.0.0","262492","p6labg5etft","flamingo","null","<div style=""font-size:60px; color: black;"">+</div>","","","","","","","","","","",""
"","null","image-keyboard-response","170","2.0.0","264495","p6labg5etft","flamingo","null","stimuli\EXEMPLAR\USED\Emitt1.jpg","","","","","Memory","false","null","","","",""
"","null","html-keyboard-response","171","2.0.0","264997","p6labg5etft","flamingo","null","<div style=""font-size:60px; color: black;"">+</div>","","","","","","","","","","",""
"","1214","image-keyboard-response","172","2.0.0","267000","p6labg5etft","flamingo"," ","stimuli\STATE\USED\Srhino2.jpg","","","","","Memory","true","true","","","",""
"","null","html-keyboard-response","173","2.0.0","267502","p6labg5etft","flamingo","null","<div style=""font-size:60px; color: green;"">+</div>","","","","","","","","","","",""
"","null","image-keyboard-response","174","2.0.0","269506","p6labg5etft","flamingo","null","stimuli\EXEMPLAR\USED\Edinosaur2.jpg","","","","","Memory","false","null","","","",""
"","null","html-keyboard-response","175","2.0.0","270008","p6labg5etft","flamingo","null","<div style=""font-size:60px; color: black;"">+</div>","","","","","","","","","","",""
"","null","image-keyboard-response","176","2.0.0","272011","p6labg5etft","flamingo","null","stimuli\STATE\USED\Spadlock1.jpg","","","","","Memory","false","null","","","",""
"","null","html-keyboard-response","177","2.0.0","272514","p6labg5etft","flamingo","null","<div style=""font-size:60px; color: black;"">+</div>","","","","","","","","","","",""
"","null","image-keyboard-response","178","2.0.0","274517","p6labg5etft","flamingo","null","stimuli\EXEMPLAR\USED\Ehelmet2.jpg","","","","","Memory","false","null","","","",""
"","null","html-keyboard-response","179","2.0.0","275020","p6labg5etft","flamingo","null","<div style=""font-size:60px; color: black;"">+</div>","","","","","","","","","","",""
"","null","image-keyboard-response","180","2.0.0","277021","p6labg5etft","flamingo","null","stimuli\STATE\USED\Snapkins2.jpg","","","","","Memory","false","null","","","",""
"","null","html-keyboard-response","181","2.0.0","277524","p6labg5etft","flamingo","null","<div style=""font-size:60px; color: black;"">+</div>","","","","","","","","","","",""
"","null","image-keyboard-response","182","2.0.0","279527","p6labg5etft","flamingo","null","stimuli\EXEMPLAR\USED\Emuffin1.jpg","","","","","Memory","false","null","","","",""
"","null","html-keyboard-response","183","2.0.0","280029","p6labg5etft","flamingo","null","<div style=""font-size:60px; color: black;"">+</div>","","","","","","","","","","",""
"","null","image-keyboard-response","184","2.0.0","282031","p6labg5etft","flamingo","null","stimuli\STATE\USED\Stypewriter1.jpg","","","","","Memory","false","null","","","",""
"","null","html-keyboard-response","185","2.0.0","282534","p6labg5etft","flamingo","null","<div style=""font-size:60px; color: black;"">+</div>","","","","","","","","","","",""
"","null","image-keyboard-response","186","2.0.0","284537","p6labg5etft","flamingo","null","stimuli\EXEMPLAR\USED\Econe2.jpg","","","","","Memory","false","null","","","",""
"","null","html-keyboard-response","187","2.0.0","285038","p6labg5etft","flamingo","null","<div style=""font-size:60px; color: black;"">+</div>","","","","","","","","","","",""
"","1359","image-keyboard-response","188","2.0.0","287041","p6labg5etft","flamingo"," ","stimuli\STATE\USED\Snapkins2.jpg","","","","","Memory","true","true","","","",""
"","null","html-keyboard-response","189","2.0.0","287544","p6labg5etft","flamingo","null","<div style=""font-size:60px; color: green;"">+</div>","","","","","","","","","","",""
"","null","image-keyboard-response","190","2.0.0","289546","p6labg5etft","flamingo","null","stimuli\EXEMPLAR\USED\Ecalculator1.jpg","","","","","Memory","false","null","","","",""
"","null","html-keyboard-response","191","2.0.0","290048","p6labg5etft","flamingo","null","<div style=""font-size:60px; color: black;"">+</div>","","","","","","","","","","",""
"","null","image-keyboard-response","192","2.0.0","292051","p6labg5etft","flamingo","null","stimuli\STATE\USED\Sbelt2.jpg","","","","","Memory","false","null","","","",""
"","null","html-keyboard-response","193","2.0.0","292553","p6labg5etft","flamingo","null","<div style=""font-size:60px; color: black;"">+</div>","","","","","","","","","","",""
"","null","image-keyboard-response","194","2.0.0","294556","p6labg5etft","flamingo","null","stimuli\EXEMPLAR\USED\Eladder1.jpg","","","","","Memory","false","null","","","",""
"","null","html-keyboard-response","195","2.0.0","295057","p6labg5etft","flamingo","null","<div style=""font-size:60px; color: black;"">+</div>","","","","","","","","","","",""
"","null","image-keyboard-response","196","2.0.0","297059","p6labg5etft","flamingo","null","stimuli\EXEMPLAR\USED\Etractor2.jpg","","","","","Memory","false","null","","","",""
"","null","html-keyboard-response","197","2.0.0","297562","p6labg5etft","flamingo","null","<div style=""font-size:60px; color: black;"">+</div>","","","","","","","","","","",""
"","null","image-keyboard-response","198","2.0.0","299565","p6labg5etft","flamingo","null","stimuli\EXEMPLAR\USED\Ecalculator1.jpg","","","","","Memory","true","null","","","",""
"","null","html-keyboard-response","199","2.0.0","300068","p6labg5etft","flamingo","null","<div style=""font-size:60px; color: black;"">+</div>","","","","","","","","","","",""
"","null","image-keyboard-response","200","2.0.0","302071","p6labg5etft","flamingo","null","stimuli\STATE\USED\Spicnicbasket1.jpg","","","","","Memory","false","null","","","",""
"","null","html-keyboard-response","201","2.0.0","302573","p6labg5etft","flamingo","null","<div style=""font-size:60px; color: black;"">+</div>","","","","","","","","","","",""
"","null","image-keyboard-response","202","2.0.0","304576","p6labg5etft","flamingo","null","stimuli\EXEMPLAR\USED\Erazor2.jpg","","","","","Memory","false","null","","","",""
"","null","html-keyboard-response","203","2.0.0","305079","p6labg5etft","flamingo","null","<div style=""font-size:60px; color: black;"">+</div>","","","","","","","","","","",""
"","null","image-keyboard-response","204","2.0.0","307081","p6labg5etft","flamingo","null","stimuli\STATE\USED\Sboxwhite2.jpg","","","","","Memory","false","null","","","",""
"","null","html-keyboard-response","205","2.0.0","307584","p6labg5etft","flamingo","null","<div style=""font-size:60px; color: black;"">+</div>","","","","","","","","","","",""
"","null","image-keyboard-response","206","2.0.0","309587","p6labg5etft","flamingo","null","stimuli\EXEMPLAR\USED\Eswimsuit2.jpg","","","","","Memory","false","null","","","",""
"","null","html-keyboard-response","207","2.0.0","310088","p6labg5etft","flamingo","null","<div style=""font-size:60px; color: black;"">+</div>","","","","","","","","","","",""
"","null","image-keyboard-response","208","2.0.0","312091","p6labg5etft","flamingo","null","stimuli\STATE\USED\Sscales1.jpg","","","","","Memory","false","null","","","",""
"","null","html-keyboard-response","209","2.0.0","312594","p6labg5etft","flamingo","null","<div style=""font-size:60px; color: black;"">+</div>","","","","","","","","","","",""
"","2220","html-button-response","210","2.0.0","314815","p6labg5etft","flamingo","0","Are you still there?","","","","","Attention Check","","","","","",""
"","993","image-keyboard-response","211","2.0.0","316817","p6labg5etft","flamingo"," ","stimuli\EXEMPLAR\USED\Erazor2.jpg","","","","","Memory","true","true","","","",""
"","null","html-keyboard-response","212","2.0.0","317319","p6labg5etft","flamingo","null","<div style=""font-size:60px; color: green;"">+</div>","","","","","","","","","","",""
"","null","image-keyboard-response","213","2.0.0","319322","p6labg5etft","flamingo","null","stimuli\STATE\USED\Sdishes2.JPG","","","","","Memory","false","null","","","",""
"","null","html-keyboard-response","214","2.0.0","319825","p6labg5etft","flamingo","null","<div style=""font-size:60px; color: black;"">+</div>","","","","","","","","","","",""
"","null","image-keyboard-response","215","2.0.0","321828","p6labg5etft","flamingo","null","stimuli\STATE\USED\Slaptop2.JPG","","","","","Memory","false","null","","","",""
"","null","html-keyboard-response","216","2.0.0","322330","p6labg5etft","flamingo","null","<div style=""font-size:60px; color: black;"">+</div>","","","","","","","","","","",""
"","null","image-keyboard-response","217","2.0.0","324333","p6labg5etft","flamingo","null","stimuli\STATE\USED\Sstoplight1.jpg","","","","","Memory","false","null","","","",""
"","null","html-keyboard-response","218","2.0.0","324836","p6labg5etft","flamingo","null","<div style=""font-size:60px; color: black;"">+</div>","","","","","","","","","","",""
"","null","image-keyboard-response","219","2.0.0","326839","p6labg5etft","flamingo","null","stimuli\EXEMPLAR\USED\Ebicycle1.jpg","","","","","Memory","false","null","","","",""
"","null","html-keyboard-response","220","2.0.0","327340","p6labg5etft","flamingo","null","<div style=""font-size:60px; color: black;"">+</div>","","","","","","","","","","",""
"","null","image-keyboard-response","221","2.0.0","329342","p6labg5etft","flamingo","null","stimuli\EXEMPLAR\USED\Epeppers2.jpg","","","","","Memory","false","null","","","",""
"","null","html-keyboard-response","222","2.0.0","329845","p6labg5etft","flamingo","null","<div style=""font-size:60px; color: black;"">+</div>","","","","","","","","","","",""
"","null","image-keyboard-response","223","2.0.0","331848","p6labg5etft","flamingo","null","stimuli\STATE\USED\Seggplant2.jpg","","","","","Memory","false","null","","","",""
"","null","html-keyboard-response","224","2.0.0","332351","p6labg5etft","flamingo","null","<div style=""font-size:60px; color: black;"">+</div>","","","","","","","","","","",""
"","null","image-keyboard-response","225","2.0.0","334354","p6labg5etft","flamingo","null","stimuli\EXEMPLAR\USED\Etrain2.jpg","","","","","Memory","false","null","","","",""
"","null","html-keyboard-response","226","2.0.0","334856","p6labg5etft","flamingo","null","<div style=""font-size:60px; color: black;"">+</div>","","","","","","","","","","",""
"","null","image-keyboard-response","227","2.0.0","336859","p6labg5etft","flamingo","null","stimuli\EXEMPLAR\USED\Eframe1.jpg","","","","","Memory","false","null","","","",""
"","null","html-keyboard-response","228","2.0.0","337361","p6labg5etft","flamingo","null","<div style=""font-size:60px; color: black;"">+</div>","","","","","","","","","","",""
"","1191","image-keyboard-response","229","2.0.0","339364","p6labg5etft","flamingo"," ","stimuli\EXEMPLAR\USED\Epeppers2.jpg","","","","","Memory","true","true","","","",""
"","null","html-keyboard-response","230","2.0.0","339866","p6labg5etft","flamingo","null","<div style=""font-size:60px; color: green;"">+</div>","","","","","","","","","","",""
"","null","image-keyboard-response","231","2.0.0","341870","p6labg5etft","flamingo","null","stimuli\STATE\USED\Sdishwasher2.jpg","","","","","Memory","false","null","","","",""
"","null","html-keyboard-response","232","2.0.0","342372","p6labg5etft","flamingo","null","<div style=""font-size:60px; color: black;"">+</div>","","","","","","","","","","",""
"","null","image-keyboard-response","233","2.0.0","344375","p6labg5etft","flamingo","null","stimuli\EXEMPLAR\USED\Ecake1.jpg","","","","","Memory","false","null","","","",""
"","null","html-keyboard-response","234","2.0.0","344877","p6labg5etft","flamingo","null","<div style=""font-size:60px; color: black;"">+</div>","","","","","","","","","","",""
"","null","image-keyboard-response","235","2.0.0","346880","p6labg5etft","flamingo","null","stimuli\STATE\USED\Spie2.JPG","","","","","Memory","false","null","","","",""
"","null","html-keyboard-response","236","2.0.0","347383","p6labg5etft","flamingo","null","<div style=""font-size:60px; color: black;"">+</div>","","","","","","","","","","",""
"","null","image-keyboard-response","237","2.0.0","349385","p6labg5etft","flamingo","null","stimuli\EXEMPLAR\USED\Ekayak2.jpg","","","","","Memory","false","null","","","",""
"","null","html-keyboard-response","238","2.0.0","349888","p6labg5etft","flamingo","null","<div style=""font-size:60px; color: black;"">+</div>","","","","","","","","","","",""
"","null","image-keyboard-response","239","2.0.0","351891","p6labg5etft","flamingo","null","stimuli\STATE\USED\Sapplesgreenbasket1.jpg","","","","","Memory","false","null","","","",""
"","null","html-keyboard-response","240","2.0.0","352394","p6labg5etft","flamingo","null","<div style=""font-size:60px; color: black;"">+</div>","","","","","","","","","","",""
"","null","image-keyboard-response","241","2.0.0","354397","p6labg5etft","flamingo","null","stimuli\STATE\USED\Scoffeemaker1.JPG","","","","","Memory","false","null","","","",""
"","null","html-keyboard-response","242","2.0.0","354899","p6labg5etft","flamingo","null","<div style=""font-size:60px; color: black;"">+</div>","","","","","","","","","","",""
"","null","image-keyboard-response","243","2.0.0","356902","p6labg5etft","flamingo","null","stimuli\EXEMPLAR\USED\Epiano2.jpg","","","","","Memory","false","null","","","",""
"","null","html-keyboard-response","244","2.0.0","357403","p6labg5etft","flamingo","null","<div style=""font-size:60px; color: black;"">+</div>","","","","","","","","","","",""
"","null","image-keyboard-response","245","2.0.0","359406","p6labg5etft","flamingo","null","stimuli\STATE\USED\Ssweater1.jpg","","","","","Memory","false","null","","","",""
"","null","html-keyboard-response","246","2.0.0","359909","p6labg5etft","flamingo","null","<div style=""font-size:60px; color: black;"">+</div>","","","","","","","","","","",""
"","690","image-keyboard-response","247","2.0.0","361912","p6labg5etft","flamingo"," ","stimuli\STATE\USED\Sapplesgreenbasket1.jpg","","","","","Memory","true","true","","","",""
"","null","html-keyboard-response","248","2.0.0","362415","p6labg5etft","flamingo","null","<div style=""font-size:60px; color: green;"">+</div>","","","","","","","","","","",""
"","null","image-keyboard-response","249","2.0.0","364418","p6labg5etft","flamingo","null","stimuli\STATE\USED\Sseats2.jpg","","","","","Memory","false","null","","","",""
"","null","html-keyboard-response","250","2.0.0","364921","p6labg5etft","flamingo","null","<div style=""font-size:60px; color: black;"">+</div>","","","","","","","","","","",""
"","null","image-keyboard-response","251","2.0.0","366923","p6labg5etft","flamingo","null","stimuli\STATE\USED\Sbabytoy1.JPG","","","","","Memory","false","null","","","",""
"","null","html-keyboard-response","252","2.0.0","367426","p6labg5etft","flamingo","null","<div style=""font-size:60px; color: black;"">+</div>","","","","","","","","","","",""
"","null","image-keyboard-response","253","2.0.0","369429","p6labg5etft","flamingo","null","stimuli\STATE\USED\Sdryer2.jpg","","","","","Memory","false","null","","","",""
"","null","html-keyboard-response","254","2.0.0","369932","p6labg5etft","flamingo","null","<div style=""font-size:60px; color: black;"">+</div>","","","","","","","","","","",""
"","null","image-keyboard-response","255","2.0.0","371935","p6labg5etft","flamingo","null","stimuli\EXEMPLAR\USED\Enozzle2.jpg","","","","","Memory","false","null","","","",""
"","null","html-keyboard-response","256","2.0.0","372438","p6labg5etft","flamingo","null","<div style=""font-size:60px; color: black;"">+</div>","","","","","","","","","","",""
"","null","image-keyboard-response","257","2.0.0","374441","p6labg5etft","flamingo","null","stimuli\EXEMPLAR\USED\Etoyplane1.jpg","","","","","Memory","false","null","","","",""
"","null","html-keyboard-response","258","2.0.0","374944","p6labg5etft","flamingo","null","<div style=""font-size:60px; color: black;"">+</div>","","","","","","","","","","",""
"","null","image-keyboard-response","259","2.0.0","376947","p6labg5etft","flamingo","null","stimuli\EXEMPLAR\USED\Efishbowl2.jpg","","","","","Memory","false","null","","","",""
"","null","html-keyboard-response","260","2.0.0","377449","p6labg5etft","flamingo","null","<div style=""font-size:60px; color: black;"">+</div>","","","","","","","","","","",""
"","null","image-keyboard-response","261","2.0.0","379451","p6labg5etft","flamingo","null","stimuli\STATE\USED\Srainbowslice1.jpg","","","","","Memory","false","null","","","",""
"","null","html-keyboard-response","262","2.0.0","379953","p6labg5etft","flamingo","null","<div style=""font-size:60px; color: black;"">+</div>","","","","","","","","","","",""
"","746","image-keyboard-response","263","2.0.0","381955","p6labg5etft","flamingo"," ","stimuli\EXEMPLAR\USED\Enozzle2.jpg","","","","","Memory","true","true","","","",""
"","null","html-keyboard-response","264","2.0.0","382457","p6labg5etft","flamingo","null","<div style=""font-size:60px; color: green;"">+</div>","","","","","","","","","","",""
"","null","image-keyboard-response","265","2.0.0","384460","p6labg5etft","flamingo","null","stimuli\STATE\USED\Sphone2.JPG","","","","","Memory","false","null","","","",""
"","null","html-keyboard-response","266","2.0.0","384963","p6labg5etft","flamingo","null","<div style=""font-size:60px; color: black;"">+</div>","","","","","","","","","","",""
"","null","image-keyboard-response","267","2.0.0","386965","p6labg5etft","flamingo","null","stimuli\EXEMPLAR\USED\Elei2.jpg","","","","","Memory","false","null","","","",""
"","null","html-keyboard-response","268","2.0.0","387467","p6labg5etft","flamingo","null","<div style=""font-size:60px; color: black;"">+</div>","","","","","","","","","","",""
"","null","image-keyboard-response","269","2.0.0","389471","p6labg5etft","flamingo","null","stimuli\EXEMPLAR\USED\Erabbit2.jpg","","","","","Memory","false","null","","","",""
"","null","html-keyboard-response","270","2.0.0","389973","p6labg5etft","flamingo","null","<div style=""font-size:60px; color: black;"">+</div>","","","","","","","","","","",""
"","null","image-keyboard-response","271","2.0.0","391977","p6labg5etft","flamingo","null","stimuli\EXEMPLAR\USED\Emuffler2.jpg","","","","","Memory","false","null","","","",""
"","null","html-keyboard-response","272","2.0.0","392478","p6labg5etft","flamingo","null","<div style=""font-size:60px; color: black;"">+</div>","","","","","","","","","","",""
"","null","image-keyboard-response","273","2.0.0","394481","p6labg5etft","flamingo","null","stimuli\EXEMPLAR\USED\Estapler1.jpg","","","","","Memory","false","null","","","",""
"","null","html-keyboard-response","274","2.0.0","394983","p6labg5etft","flamingo","null","<div style=""font-size:60px; color: black;"">+</div>","","","","","","","","","","",""
"","null","image-keyboard-response","275","2.0.0","396987","p6labg5etft","flamingo","null","stimuli\EXEMPLAR\USED\Ewineglass1.jpg","","","","","Memory","false","null","","","",""
"","null","html-keyboard-response","276","2.0.0","397489","p6labg5etft","flamingo","null","<div style=""font-size:60px; color: black;"">+</div>","","","","","","","","","","",""
"","895","image-keyboard-response","277","2.0.0","399492","p6labg5etft","flamingo"," ","stimuli\EXEMPLAR\USED\Erabbit2.jpg","","","","","Memory","true","true","","","",""
"","null","html-keyboard-response","278","2.0.0","399995","p6labg5etft","flamingo","null","<div style=""font-size:60px; color: green;"">+</div>","","","","","","","","","","",""
"","null","image-keyboard-response","279","2.0.0","401997","p6labg5etft","flamingo","null","stimuli\STATE\USED\Sskull2.jpg","","","","","Memory","false","null","","","",""
"","null","html-keyboard-response","280","2.0.0","402499","p6labg5etft","flamingo","null","<div style=""font-size:60px; color: black;"">+</div>","","","","","","","","","","",""
"","null","image-keyboard-response","281","2.0.0","404502","p6labg5etft","flamingo","null","stimuli\STATE\USED\Sgrinder1.jpg","","","","","Memory","false","null","","","",""
"","null","html-keyboard-response","282","2.0.0","405004","p6labg5etft","flamingo","null","<div style=""font-size:60px; color: black;"">+</div>","","","","","","","","","","",""
"","null","image-keyboard-response","283","2.0.0","407008","p6labg5etft","flamingo","null","stimuli\EXEMPLAR\USED\Espraybottle2.jpg","","","","","Memory","false","null","","","",""
"","null","html-keyboard-response","284","2.0.0","407510","p6labg5etft","flamingo","null","<div style=""font-size:60px; color: black;"">+</div>","","","","","","","","","","",""
"","null","image-keyboard-response","285","2.0.0","409512","p6labg5etft","flamingo","null","stimuli\EXEMPLAR\USED\Eglobe2.jpg","","","","","Memory","false","null","","","",""
"","null","html-keyboard-response","286","2.0.0","410015","p6labg5etft","flamingo","null","<div style=""font-size:60px; color: black;"">+</div>","","","","","","","","","","",""
"","null","image-keyboard-response","287","2.0.0","412018","p6labg5etft","flamingo","null","stimuli\STATE\USED\Sumbrella1.jpg","","","","","Memory","false","null","","","",""
"","null","html-keyboard-response","288","2.0.0","412520","p6labg5etft","flamingo","null","<div style=""font-size:60px; color: black;"">+</div>","","","","","","","","","","",""
"","null","image-keyboard-response","289","2.0.0","414523","p6labg5etft","flamingo","null","stimuli\STATE\USED\Sbox1.jpg","","","","","Memory","false","null","","","",""
"","null","html-keyboard-response","290","2.0.0","415024","p6labg5etft","flamingo","null","<div style=""font-size:60px; color: black;"">+</div>","","","","","","","","","","",""
"","null","image-keyboard-response","291","2.0.0","417027","p6labg5etft","flamingo","null","stimuli\STATE\USED\Smetronome2.JPG","","","","","Memory","false","null","","","",""
"","null","html-keyboard-response","292","2.0.0","417529","p6labg5etft","flamingo","null","<div style=""font-size:60px; color: black;"">+</div>","","","","","","","","","","",""
"","null","image-keyboard-response","293","2.0.0","419532","p6labg5etft","flamingo","null","stimuli\EXEMPLAR\USED\Etoyhand2.jpg","","","","","Memory","false","null","","","",""
"","null","html-keyboard-response","294","2.0.0","420035","p6labg5etft","flamingo","null","<div style=""font-size:60px; color: black;"">+</div>","","","","","","","","","","",""
"","null","image-keyboard-response","295","2.0.0","422038","p6labg5etft","flamingo","null","stimuli\STATE\USED\Sflask1.jpg","","","","","Memory","false","null","","","",""
"","null","html-keyboard-response","296","2.0.0","422539","p6labg5etft","flamingo","null","<div style=""font-size:60px; color: black;"">+</div>","","","","","","","","","","",""
"","757","image-keyboard-response","297","2.0.0","424542","p6labg5etft","flamingo"," ","stimuli\STATE\USED\Sbox1.jpg","","","","","Memory","true","true","","","",""
"","null","html-keyboard-response","298","2.0.0","425045","p6labg5etft","flamingo","null","<div style=""font-size:60px; color: green;"">+</div>","","","","","","","","","","",""
"","null","image-keyboard-response","299","2.0.0","427048","p6labg5etft","flamingo","null","stimuli\EXEMPLAR\USED\Earch1.jpg","","","","","Memory","false","null","","","",""
"","null","html-keyboard-response","300","2.0.0","427551","p6labg5etft","flamingo","null","<div style=""font-size:60px; color: black;"">+</div>","","","","","","","","","","",""
"","null","image-keyboard-response","301","2.0.0","429554","p6labg5etft","flamingo","null","stimuli\STATE\USED\Sapple1.jpg","","","","","Memory","false","null","","","",""
"","null","html-keyboard-response","302","2.0.0","430057","p6labg5etft","flamingo","null","<div style=""font-size:60px; color: black;"">+</div>","","","","","","","","","","",""
"","null","image-keyboard-response","303","2.0.0","432060","p6labg5etft","flamingo","null","stimuli\EXEMPLAR\USED\Esantahat2.jpg","","","","","Memory","false","null","","","",""
"","null","html-keyboard-response","304","2.0.0","432562","p6labg5etft","flamingo","null","<div style=""font-size:60px; color: black;"">+</div>","","","","","","","","","","",""
"","null","image-keyboard-response","305","2.0.0","434566","p6labg5etft","flamingo","null","stimuli\EXEMPLAR\USED\Ebonzai1.jpg","","","","","Memory","false","null","","","",""
"","null","html-keyboard-response","306","2.0.0","435068","p6labg5etft","flamingo","null","<div style=""font-size:60px; color: black;"">+</div>","","","","","","","","","","",""
"","679","image-keyboard-response","307","2.0.0","437072","p6labg5etft","flamingo"," ","stimuli\EXEMPLAR\USED\Earch1.jpg","","","","","Memory","true","true","","","",""
"","null","html-keyboard-response","308","2.0.0","437575","p6labg5etft","flamingo","null","<div style=""font-size:60px; color: green;"">+</div>","","","","","","","","","","",""
"","null","image-keyboard-response","309","2.0.0","439578","p6labg5etft","flamingo","null","stimuli\STATE\USED\Swaffleiron1.jpg","","","","","Memory","false","null","","","",""
"","null","html-keyboard-response","310","2.0.0","440080","p6labg5etft","flamingo","null","<div style=""font-size:60px; color: black;"">+</div>","","","","","","","","","","",""
"","null","image-keyboard-response","311","2.0.0","442084","p6labg5etft","flamingo","null","stimuli\EXEMPLAR\USED\Emoney2.jpg","","","","","Memory","false","null","","","",""
"","null","html-keyboard-response","312","2.0.0","442586","p6labg5etft","flamingo","null","<div style=""font-size:60px; color: black;"">+</div>","","","","","","","","","","",""
"","1097","html-button-response","313","2.0.0","443684","p6labg5etft","flamingo","0","Are you still there?","","","","","Attention Check","","","","","",""
"","null","image-keyboard-response","314","2.0.0","445687","p6labg5etft","flamingo","null","stimuli\STATE\USED\Sdie1.jpg","","","","","Memory","false","null","","","",""
"","null","html-keyboard-response","315","2.0.0","446190","p6labg5etft","flamingo","null","<div style=""font-size:60px; color: black;"">+</div>","","","","","","","","","","",""
"","null","image-keyboard-response","316","2.0.0","448193","p6labg5etft","flamingo","null","stimuli\EXEMPLAR\USED\Esuitcase1.jpg","","","","","Memory","false","null","","","",""
"","null","html-keyboard-response","317","2.0.0","448696","p6labg5etft","flamingo","null","<div style=""font-size:60px; color: black;"">+</div>","","","","","","","","","","",""
"","null","image-keyboard-response","318","2.0.0","450699","p6labg5etft","flamingo","null","stimuli\STATE\USED\Sgiftbag1.jpg","","","","","Memory","false","null","","","",""
"","null","html-keyboard-response","319","2.0.0","451202","p6labg5etft","flamingo","null","<div style=""font-size:60px; color: black;"">+</div>","","","","","","","","","","",""
"","null","image-keyboard-response","320","2.0.0","453205","p6labg5etft","flamingo","null","stimuli\EXEMPLAR\USED\Eteapot2.JPG","","","","","Memory","false","null","","","",""
"","null","html-keyboard-response","321","2.0.0","453707","p6labg5etft","flamingo","null","<div style=""font-size:60px; color: black;"">+</div>","","","","","","","","","","",""
"","null","image-keyboard-response","322","2.0.0","455710","p6labg5etft","flamingo","null","stimuli\STATE\USED\Sdonut2.jpg","","","","","Memory","false","null","","","",""
"","null","html-keyboard-response","323","2.0.0","456213","p6labg5etft","flamingo","null","<div style=""font-size:60px; color: black;"">+</div>","","","","","","","","","","",""
"","null","image-keyboard-response","324","2.0.0","458216","p6labg5etft","flamingo","null","stimuli\EXEMPLAR\USED\Etongs2.jpg","","","","","Memory","false","null","","","",""
"","null","html-keyboard-response","325","2.0.0","458719","p6labg5etft","flamingo","null","<div style=""font-size:60px; color: black;"">+</div>","","","","","","","","","","",""
"","null","image-keyboard-response","326","2.0.0","460721","p6labg5etft","flamingo","null","stimuli\EXEMPLAR\USED\Efolder2.jpg","","","","","Memory","false","null","","","",""
"","null","html-keyboard-response","327","2.0.0","461224","p6labg5etft","flamingo","null","<div style=""font-size:60px; color: black;"">+</div>","","","","","","","","","","",""
"","null","image-keyboard-response","328","2.0.0","463227","p6labg5etft","flamingo","null","stimuli\STATE\USED\Sgiftbox2.jpg","","","","","Memory","false","null","","","",""
"","null","html-keyboard-response","329","2.0.0","463729","p6labg5etft","flamingo","null","<div style=""font-size:60px; color: black;"">+</div>","","","","","","","","","","",""
"","1148","image-keyboard-response","330","2.0.0","465732","p6labg5etft","flamingo"," ","stimuli\STATE\USED\Sdonut2.jpg","","","","","Memory","true","true","","","",""
"","null","html-keyboard-response","331","2.0.0","466234","p6labg5etft","flamingo","null","<div style=""font-size:60px; color: green;"">+</div>","","","","","","","","","","",""
"","null","image-keyboard-response","332","2.0.0","468238","p6labg5etft","flamingo","null","stimuli\EXEMPLAR\USED\Epliers1.jpg","","","","","Memory","false","null","","","",""
"","null","html-keyboard-response","333","2.0.0","468740","p6labg5etft","flamingo","null","<div style=""font-size:60px; color: black;"">+</div>","","","","","","","","","","",""
"","null","image-keyboard-response","334","2.0.0","470742","p6labg5etft","flamingo","null","stimuli\STATE\USED\Sclipboard2.jpg","","","","","Memory","false","null","","","",""
"","null","html-keyboard-response","335","2.0.0","471245","p6labg5etft","flamingo","null","<div style=""font-size:60px; color: black;"">+</div>","","","","","","","","","","",""
"","null","image-keyboard-response","336","2.0.0","473248","p6labg5etft","flamingo","null","stimuli\EXEMPLAR\USED\Ebell1.jpg","","","","","Memory","false","null","","","",""
"","null","html-keyboard-response","337","2.0.0","473751","p6labg5etft","flamingo","null","<div style=""font-size:60px; color: black;"">+</div>","","","","","","","","","","",""
"","null","image-keyboard-response","338","2.0.0","475754","p6labg5etft","flamingo","null","stimuli\EXEMPLAR\USED\Etrophy1.jpg","","","","","Memory","false","null","","","",""
"","null","html-keyboard-response","339","2.0.0","476256","p6labg5etft","flamingo","null","<div style=""font-size:60px; color: black;"">+</div>","","","","","","","","","","",""
"","null","image-keyboard-response","340","2.0.0","478258","p6labg5etft","flamingo","null","stimuli\STATE\USED\Saccordion2.jpg","","","","","Memory","false","null","","","",""
"","null","html-keyboard-response","341","2.0.0","478760","p6labg5etft","flamingo","null","<div style=""font-size:60px; color: black;"">+</div>","","","","","","","","","","",""
"","null","image-keyboard-response","342","2.0.0","480763","p6labg5etft","flamingo","null","stimuli\STATE\USED\Sclipboard2.jpg","","","","","Memory","true","null","","","",""
"","null","html-keyboard-response","343","2.0.0","481266","p6labg5etft","flamingo","null","<div style=""font-size:60px; color: black;"">+</div>","","","","","","","","","","",""
"","null","image-keyboard-response","344","2.0.0","483269","p6labg5etft","flamingo","null","stimuli\STATE\USED\Spiggybank1.jpg","","","","","Memory","false","null","","","",""
"","null","html-keyboard-response","345","2.0.0","483772","p6labg5etft","flamingo","null","<div style=""font-size:60px; color: black;"">+</div>","","","","","","","","","","",""
"","null","image-keyboard-response","346","2.0.0","485776","p6labg5etft","flamingo","null","stimuli\EXEMPLAR\USED\Edispenser1.jpg","","","","","Memory","false","null","","","",""
"","null","html-keyboard-response","347","2.0.0","486278","p6labg5etft","flamingo","null","<div style=""font-size:60px; color: black;"">+</div>","","","","","","","","","","",""
"","3950","html-keyboard-response","348","2.0.0","490229","p6labg5etft","flamingo"," ","
          <p>In the next part of this experiment, you will see 2 images. Please select the image that you recall from the image stream.</p>
          <p>You will also rate your confidence for each image you recall.</p>
          <p>Press any key to start.</p>
        ","","","","","","","","","","",""
"","1404","html-button-response","349","2.0.0","491634","p6labg5etft","flamingo","0","Which of these items did you see before?","","","","","Test","","true","[""stimuli\\EXEMPLAR\\USED\\Echocolatebar1.jpg"",""stimuli\\EXEMPLAR\\USED\\Echocolatebar2.jpg""]","stimuli\EXEMPLAR\USED\Echocolatebar1.jpg","stimuli\EXEMPLAR\USED\Echocolatebar1.jpg",""
"","2116","image-slider-response","350","2.0.0","493753","p6labg5etft","flamingo","5","stimuli\EXEMPLAR\USED\Echocolatebar1.jpg","","","","","","","","","","","3"
"","2604","html-button-response","351","2.0.0","496358","p6labg5etft","flamingo","0","Which of these items did you see before?","","","","","Test","","true","[""stimuli\\EXEMPLAR\\USED\\Espraybottle2.jpg"",""stimuli\\EXEMPLAR\\USED\\Espraybottle1.jpg""]","stimuli\EXEMPLAR\USED\Espraybottle2.jpg","stimuli\EXEMPLAR\USED\Espraybottle2.jpg",""
"","1586","image-slider-response","352","2.0.0","497946","p6labg5etft","flamingo","4","stimuli\EXEMPLAR\USED\Espraybottle2.jpg","","","","","","","","","","","3"
"","1535","html-button-response","353","2.0.0","499482","p6labg5etft","flamingo","0","Which of these items did you see before?","","","","","Test","","true","[""stimuli\\STATE\\USED\\Sbreadslice1.jpg"",""stimuli\\STATE\\USED\\Sbreadslice2.jpg""]","stimuli\STATE\USED\Sbreadslice1.jpg","stimuli\STATE\USED\Sbreadslice1.jpg",""
"","2744","image-slider-response","354","2.0.0","502228","p6labg5etft","flamingo","2","stimuli\STATE\USED\Sbreadslice1.jpg","","","","","","","","","","","3"
"","1527","html-button-response","355","2.0.0","503755","p6labg5etft","flamingo","1","Which of these items did you see before?","","","","","Test","","true","[""stimuli\\EXEMPLAR\\USED\\Eheadphones2.jpg"",""stimuli\\EXEMPLAR\\USED\\Eheadphones1.jpg""]","stimuli\EXEMPLAR\USED\Eheadphones1.jpg","stimuli\EXEMPLAR\USED\Eheadphones1.jpg",""
"","1992","image-slider-response","356","2.0.0","505749","p6labg5etft","flamingo","4","stimuli\EXEMPLAR\USED\Eheadphones1.jpg","","","","","","","","","","","3"
"","1265","html-button-response","357","2.0.0","507016","p6labg5etft","flamingo","0","Which of these items did you see before?","","","","","Test","","true","[""stimuli\\STATE\\USED\\Sstoplight1.jpg"",""stimuli\\STATE\\USED\\Sstoplight2.jpg""]","stimuli\STATE\USED\Sstoplight1.jpg","stimuli\STATE\USED\Sstoplight1.jpg",""
"","1598","image-slider-response","358","2.0.0","508616","p6labg5etft","flamingo","5","stimuli\STATE\USED\Sstoplight1.jpg","","","","","","","","","","","3"
"","1905","html-button-response","359","2.0.0","510522","p6labg5etft","flamingo","0","Which of these items did you see before?","","","","","Test","","false","[""stimuli\\EXEMPLAR\\USED\\Emicroscope1.jpg"",""stimuli\\EXEMPLAR\\USED\\Emicroscope2.jpg""]","stimuli\EXEMPLAR\USED\Emicroscope2.jpg","stimuli\EXEMPLAR\USED\Emicroscope1.jpg",""
"","2664","image-slider-response","360","2.0.0","513187","p6labg5etft","flamingo","3","stimuli\EXEMPLAR\USED\Emicroscope1.jpg","","","","","","","","","","","3"
"","2588","html-button-response","361","2.0.0","515777","p6labg5etft","flamingo","0","Which of these items did you see before?","","","","","Test","","true","[""stimuli\\STATE\\USED\\Sgiftbag1.jpg"",""stimuli\\STATE\\USED\\Sgiftbag2.jpg""]","stimuli\STATE\USED\Sgiftbag1.jpg","stimuli\STATE\USED\Sgiftbag1.jpg",""
"","2149","image-slider-response","362","2.0.0","517927","p6labg5etft","flamingo","3","stimuli\STATE\USED\Sgiftbag1.jpg","","","","","","","","","","","3"
"","1479","html-button-response","363","2.0.0","519407","p6labg5etft","flamingo","0","Which of these items did you see before?","","","","","Test","","false","[""stimuli\\EXEMPLAR\\USED\\Ewheelchair2.jpg"",""stimuli\\EXEMPLAR\\USED\\Ewheelchair1.jpg""]","stimuli\EXEMPLAR\USED\Ewheelchair1.jpg","stimuli\EXEMPLAR\USED\Ewheelchair2.jpg",""
"","2447","image-slider-response","364","2.0.0","521855","p6labg5etft","flamingo","2","stimuli\EXEMPLAR\USED\Ewheelchair2.jpg","","","","","","","","","","","3"
"","2017","html-button-response","365","2.0.0","523873","p6labg5etft","flamingo","1","Which of these items did you see before?","","","","","Test","","true","[""stimuli\\EXEMPLAR\\USED\\Ecalculator2.jpg"",""stimuli\\EXEMPLAR\\USED\\Ecalculator1.jpg""]","stimuli\EXEMPLAR\USED\Ecalculator1.jpg","stimuli\EXEMPLAR\USED\Ecalculator1.jpg",""
"","1956","image-slider-response","366","2.0.0","525831","p6labg5etft","flamingo","2","stimuli\EXEMPLAR\USED\Ecalculator1.jpg","","","","","","","","","","","3"
"","1920","html-button-response","367","2.0.0","527753","p6labg5etft","flamingo","0","Which of these items did you see before?","","","","","Test","","true","[""stimuli\\EXEMPLAR\\USED\\Econe2.jpg"",""stimuli\\EXEMPLAR\\USED\\Econe1.jpg""]","stimuli\EXEMPLAR\USED\Econe2.jpg","stimuli\EXEMPLAR\USED\Econe2.jpg",""
"","1522","image-slider-response","368","2.0.0","529277","p6labg5etft","flamingo","3","stimuli\EXEMPLAR\USED\Econe2.jpg","","","","","","","","","","","3"
"","1559","html-button-response","369","2.0.0","530836","p6labg5etft","flamingo","0","Which of these items did you see before?","","","","","Test","","true","[""stimuli\\EXEMPLAR\\USED\\Ecake1.jpg"",""stimuli\\EXEMPLAR\\USED\\Ecake2.jpg""]","stimuli\EXEMPLAR\USED\Ecake1.jpg","stimuli\EXEMPLAR\USED\Ecake1.jpg",""
"","2302","image-slider-response","370","2.0.0","533140","p6labg5etft","flamingo","5","stimuli\EXEMPLAR\USED\Ecake1.jpg","","","","","","","","","","","3"
"","908","html-button-response","371","2.0.0","534048","p6labg5etft","flamingo","0","Which of these items did you see before?","","","","","Test","","true","[""stimuli\\EXEMPLAR\\USED\\Eglobe2.jpg"",""stimuli\\EXEMPLAR\\USED\\Eglobe1.jpg""]","stimuli\EXEMPLAR\USED\Eglobe2.jpg","stimuli\EXEMPLAR\USED\Eglobe2.jpg",""
"","1792","image-slider-response","372","2.0.0","535841","p6labg5etft","flamingo","5","stimuli\EXEMPLAR\USED\Eglobe2.jpg","","","","","","","","","","","3"
"","1092","html-button-response","373","2.0.0","536935","p6labg5etft","flamingo","1","Which of these items did you see before?","","","","","Test","","true","[""stimuli\\STATE\\USED\\Spadlock2.jpg"",""stimuli\\STATE\\USED\\Spadlock1.jpg""]","stimuli\STATE\USED\Spadlock1.jpg","stimuli\STATE\USED\Spadlock1.jpg",""
"","2238","image-slider-response","374","2.0.0","539174","p6labg5etft","flamingo","5","stimuli\STATE\USED\Spadlock1.jpg","","","","","","","","","","","3"
"","2427","html-button-response","375","2.0.0","541603","p6labg5etft","flamingo","1","Which of these items did you see before?","","","","","Test","","true","[""stimuli\\EXEMPLAR\\USED\\Eholepunch2.jpg"",""stimuli\\EXEMPLAR\\USED\\Eholepunch1.jpg""]","stimuli\EXEMPLAR\USED\Eholepunch1.jpg","stimuli\EXEMPLAR\USED\Eholepunch1.jpg",""
"","1707","image-slider-response","376","2.0.0","543311","p6labg5etft","flamingo","3","stimuli\EXEMPLAR\USED\Eholepunch1.jpg","","","","","","","","","","","3"
"","1133","html-button-response","377","2.0.0","544445","p6labg5etft","flamingo","1","Which of these items did you see before?","","","","","Test","","true","[""stimuli\\STATE\\USED\\Sdishwasher1.jpg"",""stimuli\\STATE\\USED\\Sdishwasher2.jpg""]","stimuli\STATE\USED\Sdishwasher2.jpg","stimuli\STATE\USED\Sdishwasher2.jpg",""
"","1293","image-slider-response","378","2.0.0","545739","p6labg5etft","flamingo","4","stimuli\STATE\USED\Sdishwasher2.jpg","","","","","","","","","","","3"
"","1539","html-button-response","379","2.0.0","547280","p6labg5etft","flamingo","1","Which of these items did you see before?","","","","","Test","","true","[""stimuli\\EXEMPLAR\\USED\\Eturtle2.jpg"",""stimuli\\EXEMPLAR\\USED\\Eturtle1.jpg""]","stimuli\EXEMPLAR\USED\Eturtle1.jpg","stimuli\EXEMPLAR\USED\Eturtle1.jpg",""
"","2217","image-slider-response","380","2.0.0","549499","p6labg5etft","flamingo","4","stimuli\EXEMPLAR\USED\Eturtle1.jpg","","","","","","","","","","","3"
"","1358","html-button-response","381","2.0.0","550858","p6labg5etft","flamingo","1","Which of these items did you see before?","","","","","Test","","true","[""stimuli\\EXEMPLAR\\USED\\Ehanger2.jpg"",""stimuli\\EXEMPLAR\\USED\\Ehanger1.jpg""]","stimuli\EXEMPLAR\USED\Ehanger1.jpg","stimuli\EXEMPLAR\USED\Ehanger1.jpg",""
"","1433","image-slider-response","382","2.0.0","552293","p6labg5etft","flamingo","4","stimuli\EXEMPLAR\USED\Ehanger1.jpg","","","","","","","","","","","3"
"","1238","html-button-response","383","2.0.0","553531","p6labg5etft","flamingo","0","Which of these items did you see before?","","","","","Test","","true","[""stimuli\\EXEMPLAR\\USED\\Etoyhand2.jpg"",""stimuli\\EXEMPLAR\\USED\\Etoyhand1.jpg""]","stimuli\EXEMPLAR\USED\Etoyhand2.jpg","stimuli\EXEMPLAR\USED\Etoyhand2.jpg",""
"","1832","image-slider-response","384","2.0.0","555365","p6labg5etft","flamingo","5","stimuli\EXEMPLAR\USED\Etoyhand2.jpg","","","","","","","","","","","3"
"","1618","html-button-response","385","2.0.0","556984","p6labg5etft","flamingo","1","Which of these items did you see before?","","","","","Test","","false","[""stimuli\\EXEMPLAR\\USED\\Ebread1.jpg"",""stimuli\\EXEMPLAR\\USED\\Ebread2.jpg""]","stimuli\EXEMPLAR\USED\Ebread1.jpg","stimuli\EXEMPLAR\USED\Ebread2.jpg",""
"","2556","image-slider-response","386","2.0.0","559541","p6labg5etft","flamingo","1","stimuli\EXEMPLAR\USED\Ebread2.jpg","","","","","","","","","","","3"
"","1928","html-button-response","387","2.0.0","561471","p6labg5etft","flamingo","1","Which of these items did you see before?","","","","","Test","","false","[""stimuli\\EXEMPLAR\\USED\\Eladder1.jpg"",""stimuli\\EXEMPLAR\\USED\\Eladder2.jpg""]","stimuli\EXEMPLAR\USED\Eladder1.jpg","stimuli\EXEMPLAR\USED\Eladder2.jpg",""
"","1896","image-slider-response","388","2.0.0","563368","p6labg5etft","flamingo","2","stimuli\EXEMPLAR\USED\Eladder2.jpg","","","","","","","","","","","3"
"","1141","html-button-response","389","2.0.0","564510","p6labg5etft","flamingo","0","Which of these items did you see before?","","","","","Test","","true","[""stimuli\\EXEMPLAR\\USED\\Ebracelet1.jpg"",""stimuli\\EXEMPLAR\\USED\\Ebracelet2.jpg""]","stimuli\EXEMPLAR\USED\Ebracelet1.jpg","stimuli\EXEMPLAR\USED\Ebracelet1.jpg",""
"","2334","image-slider-response","390","2.0.0","566846","p6labg5etft","flamingo","5","stimuli\EXEMPLAR\USED\Ebracelet1.jpg","","","","","","","","","","","3"
"","1703","html-button-response","391","2.0.0","568551","p6labg5etft","flamingo","1","Which of these items did you see before?","","","","","Test","","true","[""stimuli\\STATE\\USED\\Sscales2.jpg"",""stimuli\\STATE\\USED\\Sscales1.jpg""]","stimuli\STATE\USED\Sscales1.jpg","stimuli\STATE\USED\Sscales1.jpg",""
"","1530","image-slider-response","392","2.0.0","570082","p6labg5etft","flamingo","4","stimuli\STATE\USED\Sscales1.jpg","","","","","","","","","","","3"
"","1358","html-button-response","393","2.0.0","571441","p6labg5etft","flamingo","0","Which of these items did you see before?","","","","","Test","","true","[""stimuli\\STATE\\USED\\Ssweater1.jpg"",""stimuli\\STATE\\USED\\Ssweater2.jpg""]","stimuli\STATE\USED\Ssweater1.jpg","stimuli\STATE\USED\Ssweater1.jpg",""
"","2944","image-slider-response","394","2.0.0","574387","p6labg5etft","flamingo","2","stimuli\STATE\USED\Ssweater1.jpg","","","","","","","","","","","3"
"","1326","html-button-response","395","2.0.0","575714","p6labg5etft","flamingo","0","Which of these items did you see before?","","","","","Test","","true","[""stimuli\\EXEMPLAR\\USED\\Ebell1.jpg"",""stimuli\\EXEMPLAR\\USED\\Ebell2.jpg""]","stimuli\EXEMPLAR\USED\Ebell1.jpg","stimuli\EXEMPLAR\USED\Ebell1.jpg",""
"","1735","image-slider-response","396","2.0.0","577450","p6labg5etft","flamingo","2","stimuli\EXEMPLAR\USED\Ebell1.jpg","","","","","","","","","","","3"
"","1342","html-button-response","397","2.0.0","578793","p6labg5etft","flamingo","0","Which of these items did you see before?","","","","","Test","","true","[""stimuli\\STATE\\USED\\Sbriefcasemetal1.JPG"",""stimuli\\STATE\\USED\\Sbriefcasemetal2.JPG""]","stimuli\STATE\USED\Sbriefcasemetal1.JPG","stimuli\STATE\USED\Sbriefcasemetal1.JPG",""
"","2097","image-slider-response","398","2.0.0","580892","p6labg5etft","flamingo","5","stimuli\STATE\USED\Sbriefcasemetal1.JPG","","","","","","","","","","","3"
"","1783","html-button-response","399","2.0.0","582677","p6labg5etft","flamingo","0","Which of these items did you see before?","","","","","Test","","true","[""stimuli\\STATE\\USED\\Sbook1.JPG"",""stimuli\\STATE\\USED\\Sbook2.JPG""]","stimuli\STATE\USED\Sbook1.JPG","stimuli\STATE\USED\Sbook1.JPG",""
"","1554","image-slider-response","400","2.0.0","584232","p6labg5etft","flamingo","2","stimuli\STATE\USED\Sbook1.JPG","","","","","","","","","","","3"
"","1109","html-button-response","401","2.0.0","585342","p6labg5etft","flamingo","0","Which of these items did you see before?","","","","","Test","","true","[""stimuli\\STATE\\USED\\Sskull2.jpg"",""stimuli\\STATE\\USED\\Sskull1.jpg""]","stimuli\STATE\USED\Sskull2.jpg","stimuli\STATE\USED\Sskull2.jpg",""
"","1792","image-slider-response","402","2.0.0","587135","p6labg5etft","flamingo","5","stimuli\STATE\USED\Sskull2.jpg","","","","","","","","","","","3"
"","4120","html-button-response","403","2.0.0","591257","p6labg5etft","flamingo","0","Which of these items did you see before?","","","","","Test","","false","[""stimuli\\STATE\\USED\\Spolarbear1.jpg"",""stimuli\\STATE\\USED\\Spolarbear2.jpg""]","stimuli\STATE\USED\Spolarbear2.jpg","stimuli\STATE\USED\Spolarbear1.jpg",""
"","1482","image-slider-response","404","2.0.0","592740","p6labg5etft","flamingo","2","stimuli\STATE\USED\Spolarbear1.jpg","","","","","","","","","","","3"
"","1326","html-button-response","405","2.0.0","594067","p6labg5etft","flamingo","1","Which of these items did you see before?","","","","","Test","","false","[""stimuli\\STATE\\USED\\Sbooks2.JPG"",""stimuli\\STATE\\USED\\Sbooks1.JPG""]","stimuli\STATE\USED\Sbooks2.JPG","stimuli\STATE\USED\Sbooks1.JPG",""
"","2551","image-slider-response","406","2.0.0","596620","p6labg5etft","flamingo","3","stimuli\STATE\USED\Sbooks1.JPG","","","","","","","","","","","3"
"","1317","html-button-response","407","2.0.0","597938","p6labg5etft","flamingo","1","Which of these items did you see before?","","","","","Test","","true","[""stimuli\\STATE\\USED\\Sbrie2.JPG"",""stimuli\\STATE\\USED\\Sbrie1.JPG""]","stimuli\STATE\USED\Sbrie1.JPG","stimuli\STATE\USED\Sbrie1.JPG",""
"","2202","image-slider-response","408","2.0.0","600141","p6labg5etft","flamingo","5","stimuli\STATE\USED\Sbrie1.JPG","","","","","","","","","","","3"
"","1603","html-button-response","409","2.0.0","601746","p6labg5etft","flamingo","0","Which of these items did you see before?","","","","","Test","","true","[""stimuli\\EXEMPLAR\\USED\\Emuffin1.jpg"",""stimuli\\EXEMPLAR\\USED\\Emuffin2.jpg""]","stimuli\EXEMPLAR\USED\Emuffin1.jpg","stimuli\EXEMPLAR\USED\Emuffin1.jpg",""
"","1526","image-slider-response","410","2.0.0","603274","p6labg5etft","flamingo","2","stimuli\EXEMPLAR\USED\Emuffin1.jpg","","","","","","","","","","","3"
"","2121","html-button-response","411","2.0.0","605396","p6labg5etft","flamingo","0","Which of these items did you see before?","","","","","Test","","true","[""stimuli\\STATE\\USED\\Slockbox1.jpg"",""stimuli\\STATE\\USED\\Slockbox2.jpg""]","stimuli\STATE\USED\Slockbox1.jpg","stimuli\STATE\USED\Slockbox1.jpg",""
"","1876","image-slider-response","412","2.0.0","607274","p6labg5etft","flamingo","3","stimuli\STATE\USED\Slockbox1.jpg","","","","","","","","","","","3"
"","1140","html-button-response","413","2.0.0","608416","p6labg5etft","flamingo","0","Which of these items did you see before?","","","","","Test","","true","[""stimuli\\STATE\\USED\\Sscanner1.JPG"",""stimuli\\STATE\\USED\\Sscanner2.JPG""]","stimuli\STATE\USED\Sscanner1.JPG","stimuli\STATE\USED\Sscanner1.JPG",""
"","1502","image-slider-response","414","2.0.0","609919","p6labg5etft","flamingo","5","stimuli\STATE\USED\Sscanner1.JPG","","","","","","","","","","","3"
"","1772","html-button-response","415","2.0.0","611692","p6labg5etft","flamingo","1","Which of these items did you see before?","","","","","Test","","true","[""stimuli\\STATE\\USED\\Sdie2.jpg"",""stimuli\\STATE\\USED\\Sdie1.jpg""]","stimuli\STATE\USED\Sdie1.jpg","stimuli\STATE\USED\Sdie1.jpg",""
"","2516","image-slider-response","416","2.0.0","614209","p6labg5etft","flamingo","1","stimuli\STATE\USED\Sdie1.jpg","","","","","","","","","","","3"
"","1909","html-button-response","417","2.0.0","616119","p6labg5etft","flamingo","1","Which of these items did you see before?","","","","","Test","","true","[""stimuli\\STATE\\USED\\Sphone1.JPG"",""stimuli\\STATE\\USED\\Sphone2.JPG""]","stimuli\STATE\USED\Sphone2.JPG","stimuli\STATE\USED\Sphone2.JPG",""
"","1831","image-slider-response","418","2.0.0","617952","p6labg5etft","flamingo","2","stimuli\STATE\USED\Sphone2.JPG","","","","","","","","","","","3"
"","1149","html-button-response","419","2.0.0","619101","p6labg5etft","flamingo","1","Which of these items did you see before?","","","","","Test","","false","[""stimuli\\STATE\\USED\\Sbabytoy1.JPG"",""stimuli\\STATE\\USED\\Sbabytoy2.JPG""]","stimuli\STATE\USED\Sbabytoy1.JPG","stimuli\STATE\USED\Sbabytoy2.JPG",""
"","1759","image-slider-response","420","2.0.0","620862","p6labg5etft","flamingo","2","stimuli\STATE\USED\Sbabytoy2.JPG","","","","","","","","","","","3"
"","1060","html-button-response","421","2.0.0","621923","p6labg5etft","flamingo","1","Which of these items did you see before?","","","","","Test","","true","[""stimuli\\EXEMPLAR\\USED\\Epotatochips2.jpg"",""stimuli\\EXEMPLAR\\USED\\Epotatochips1.jpg""]","stimuli\EXEMPLAR\USED\Epotatochips1.jpg","stimuli\EXEMPLAR\USED\Epotatochips1.jpg",""
"","1647","image-slider-response","422","2.0.0","623571","p6labg5etft","flamingo","5","stimuli\EXEMPLAR\USED\Epotatochips1.jpg","","","","","","","","","","","3"
"","1289","html-button-response","423","2.0.0","624861","p6labg5etft","flamingo","1","Which of these items did you see before?","","","","","Test","","true","[""stimuli\\EXEMPLAR\\USED\\Etrowel1.jpg"",""stimuli\\EXEMPLAR\\USED\\Etrowel2.jpg""]","stimuli\EXEMPLAR\USED\Etrowel2.jpg","stimuli\EXEMPLAR\USED\Etrowel2.jpg",""
"","1904","image-slider-response","424","2.0.0","626767","p6labg5etft","flamingo","5","stimuli\EXEMPLAR\USED\Etrowel2.jpg","","","","","","","","","","","3"
"","1952","html-button-response","425","2.0.0","628720","p6labg5etft","flamingo","1","Which of these items did you see before?","","","","","Test","","true","[""stimuli\\STATE\\USED\\Sapplesgreenbasket2.jpg"",""stimuli\\STATE\\USED\\Sapplesgreenbasket1.jpg""]","stimuli\STATE\USED\Sapplesgreenbasket1.jpg","stimuli\STATE\USED\Sapplesgreenbasket1.jpg",""
"","1562","image-slider-response","426","2.0.0","630284","p6labg5etft","flamingo","3","stimuli\STATE\USED\Sapplesgreenbasket1.jpg","","","","","","","","","","","3"
"","1294","html-button-response","427","2.0.0","631579","p6labg5etft","flamingo","1","Which of these items did you see before?","","","","","Test","","true","[""stimuli\\STATE\\USED\\Sdonut1.jpg"",""stimuli\\STATE\\USED\\Sdonut2.jpg""]","stimuli\STATE\USED\Sdonut2.jpg","stimuli\STATE\USED\Sdonut2.jpg",""
"","1518","image-slider-response","428","2.0.0","633098","p6labg5etft","flamingo","5","stimuli\STATE\USED\Sdonut2.jpg","","","","","","","","","","","3"
"","1394","html-button-response","429","2.0.0","634493","p6labg5etft","flamingo","0","Which of these items did you see before?","","","","","Test","","true","[""stimuli\\EXEMPLAR\\USED\\Ecamera1.jpg"",""stimuli\\EXEMPLAR\\USED\\Ecamera2.jpg""]","stimuli\EXEMPLAR\USED\Ecamera1.jpg","stimuli\EXEMPLAR\USED\Ecamera1.jpg",""
"","2378","image-slider-response","430","2.0.0","636873","p6labg5etft","flamingo","2","stimuli\EXEMPLAR\USED\Ecamera1.jpg","","","","","","","","","","","3"
"","1214","html-button-response","431","2.0.0","638087","p6labg5etft","flamingo","1","Which of these items did you see before?","","","","","Test","","true","[""stimuli\\STATE\\USED\\Smetronome1.jpg"",""stimuli\\STATE\\USED\\Smetronome2.JPG""]","stimuli\STATE\USED\Smetronome2.JPG","stimuli\STATE\USED\Smetronome2.JPG",""
"","2028","image-slider-response","432","2.0.0","640117","p6labg5etft","flamingo","1","stimuli\STATE\USED\Smetronome2.JPG","","","","","","","","","","","3"
"","2130","html-button-response","433","2.0.0","642248","p6labg5etft","flamingo","1","Which of these items did you see before?","","","","","Test","","false","[""stimuli\\STATE\\USED\\Shairbrush2.jpg"",""stimuli\\STATE\\USED\\Shairbrush1.jpg""]","stimuli\STATE\USED\Shairbrush2.jpg","stimuli\STATE\USED\Shairbrush1.jpg",""
"","2230","image-slider-response","434","2.0.0","644479","p6labg5etft","flamingo","2","stimuli\STATE\USED\Shairbrush1.jpg","","","","","","","","","","","3"
"","1711","html-button-response","435","2.0.0","646191","p6labg5etft","flamingo","0","Which of these items did you see before?","","","","","Test","","true","[""stimuli\\EXEMPLAR\\USED\\Estapler1.jpg"",""stimuli\\EXEMPLAR\\USED\\Estapler2.jpg""]","stimuli\EXEMPLAR\USED\Estapler1.jpg","stimuli\EXEMPLAR\USED\Estapler1.jpg",""
"","1571","image-slider-response","436","2.0.0","647763","p6labg5etft","flamingo","2","stimuli\EXEMPLAR\USED\Estapler1.jpg","","","","","","","","","","","3"
"","940","html-button-response","437","2.0.0","648704","p6labg5etft","flamingo","0","Which of these items did you see before?","","","","","Test","","true","[""stimuli\\EXEMPLAR\\USED\\Eswimsuit2.jpg"",""stimuli\\EXEMPLAR\\USED\\Eswimsuit1.jpg""]","stimuli\EXEMPLAR\USED\Eswimsuit2.jpg","stimuli\EXEMPLAR\USED\Eswimsuit2.jpg",""
"","2535","image-slider-response","438","2.0.0","651241","p6labg5etft","flamingo","5","stimuli\EXEMPLAR\USED\Eswimsuit2.jpg","","","","","","","","","","","3"
"","1430","html-button-response","439","2.0.0","652672","p6labg5etft","flamingo","0","Which of these items did you see before?","","","","","Test","","false","[""stimuli\\EXEMPLAR\\USED\\Etrophy2.jpg"",""stimuli\\EXEMPLAR\\USED\\Etrophy1.jpg""]","stimuli\EXEMPLAR\USED\Etrophy1.jpg","stimuli\EXEMPLAR\USED\Etrophy2.jpg",""
"","2233","image-slider-response","440","2.0.0","654907","p6labg5etft","flamingo","2","stimuli\EXEMPLAR\USED\Etrophy2.jpg","","","","","","","","","","","3"
"","1402","html-button-response","441","2.0.0","656310","p6labg5etft","flamingo","1","Which of these items did you see before?","","","","","Test","","true","[""stimuli\\EXEMPLAR\\USED\\Eremover1.jpg"",""stimuli\\EXEMPLAR\\USED\\Eremover2.jpg""]","stimuli\EXEMPLAR\USED\Eremover2.jpg","stimuli\EXEMPLAR\USED\Eremover2.jpg",""
"","2459","image-slider-response","442","2.0.0","658770","p6labg5etft","flamingo","3","stimuli\EXEMPLAR\USED\Eremover2.jpg","","","","","","","","","","","3"
"","1438","html-button-response","443","2.0.0","660210","p6labg5etft","flamingo","0","Which of these items did you see before?","","","","","Test","","false","[""stimuli\\STATE\\USED\\Sseatbelt1.jpg"",""stimuli\\STATE\\USED\\Sseatbelt2.jpg""]","stimuli\STATE\USED\Sseatbelt2.jpg","stimuli\STATE\USED\Sseatbelt1.jpg",""
"","1667","image-slider-response","444","2.0.0","661878","p6labg5etft","flamingo","2","stimuli\STATE\USED\Sseatbelt1.jpg","","","","","","","","","","","3"
"","2130","html-button-response","445","2.0.0","664009","p6labg5etft","flamingo","0","Which of these items did you see before?","","","","","Test","","false","[""stimuli\\STATE\\USED\\Srhino1.jpg"",""stimuli\\STATE\\USED\\Srhino2.jpg""]","stimuli\STATE\USED\Srhino2.jpg","stimuli\STATE\USED\Srhino1.jpg",""
"","1707","image-slider-response","446","2.0.0","665718","p6labg5etft","flamingo","2","stimuli\STATE\USED\Srhino1.jpg","","","","","","","","","","","3"
"","1189","html-button-response","447","2.0.0","666908","p6labg5etft","flamingo","1","Which of these items did you see before?","","","","","Test","","true","[""stimuli\\STATE\\USED\\Sumbrella2.jpg"",""stimuli\\STATE\\USED\\Sumbrella1.jpg""]","stimuli\STATE\USED\Sumbrella1.jpg","stimuli\STATE\USED\Sumbrella1.jpg",""
"","2137","image-slider-response","448","2.0.0","669046","p6labg5etft","flamingo","5","stimuli\STATE\USED\Sumbrella1.jpg","","","","","","","","","","","3"
"","36410","survey-text","449","2.0.0","705464","p6labg5etft","flamingo","{""experiment_purpose"":""Testing how well we rememeber images and if we can recall them mixed in with similar images."",""Q1"":""Color, angle orientation, quality"",""technical_issues"":""no""}","","","","","","","","","","","",""
