"success","rt","trial_type","trial_index","plugin_version","time_elapsed","random_id","participant","response","stimulus","timeout","failed_images","failed_audio","failed_video","trial_phase","repeated","correct","choice_images","correct_image","choice","slider_start"
"true","7879","fullscreen","0","2.0.0","8888","p86x33mjzdl","gazelle","","","","","","","","","","","","",""
"","2389","survey-text","1","2.0.0","11283","p86x33mjzdl","gazelle","{""participant_id"":""gazelle""}","","","","","","","","","","","",""
"","2264","html-keyboard-response","2","2.0.0","13548","p86x33mjzdl","gazelle"," ","<p>Welcome to the Massive Memory Experiment. Press any key to move on. </p>","","","","","","","","","","",""
"","44211","html-keyboard-response","3","2.0.0","57761","p86x33mjzdl","gazelle"," ","
      <div style='width:900px;margin: auto;'><p>In the first section you will see a stream of images, with fixation crosses in between each image.</p>
      <p>Each image will remain on screen for 2 seconds. Your job is to detect images that you have seen before within the experiment. Whenever you see an image that you have seen previously <b>at any point in the stream of images</b>, press the spacebar.</p>
      <p>We will let you know if you have correctly or falsely clicked the spacebar on an image by changing the color of the fixation cross.</p>
      <p>If you press the spacebar correctly (the image really did appear earlier), the fixation cross will turn green. If you pressed the spacebar incorrectly, the fixation cross will turn red.</p>
      <p>Please watch carefully to detect the images that show up again!</p>
      <p>Press any key to start.</p></div>
    ","","","","","","","","","","",""
"true","","preload","4","2.0.0","58644","p86x33mjzdl","gazelle","","","false","[]","[]","[]","","","","","","",""
"","null","image-keyboard-response","5","2.0.0","60649","p86x33mjzdl","gazelle","null","stimuli\STATE\USED\Scooker2.jpg","","","","","Memory","false","null","","","",""
"","null","html-keyboard-response","6","2.0.0","61152","p86x33mjzdl","gazelle","null","<div style=""font-size:60px; color: black;"">+</div>","","","","","","","","","","",""
"","null","image-keyboard-response","7","2.0.0","63156","p86x33mjzdl","gazelle","null","stimuli\STATE\USED\Sbreadslice2.jpg","","","","","Memory","false","null","","","",""
"","null","html-keyboard-response","8","2.0.0","63659","p86x33mjzdl","gazelle","null","<div style=""font-size:60px; color: black;"">+</div>","","","","","","","","","","",""
"","null","image-keyboard-response","9","2.0.0","65663","p86x33mjzdl","gazelle","null","stimuli\STATE\USED\Sgrinder2.jpg","","","","","Memory","false","null","","","",""
"","null","html-keyboard-response","10","2.0.0","66165","p86x33mjzdl","gazelle","null","<div style=""font-size:60px; color: black;"">+</div>","","","","","","","","","","",""
"","null","image-keyboard-response","11","2.0.0","68168","p86x33mjzdl","gazelle","null","stimuli\EXEMPLAR\USED\Eguitar2.jpg","","","","","Memory","false","null","","","",""
"","null","html-keyboard-response","12","2.0.0","68671","p86x33mjzdl","gazelle","null","<div style=""font-size:60px; color: black;"">+</div>","","","","","","","","","","",""
"","null","image-keyboard-response","13","2.0.0","70676","p86x33mjzdl","gazelle","null","stimuli\EXEMPLAR\USED\Ehanger1.jpg","","","","","Memory","false","null","","","",""
"","null","html-keyboard-response","14","2.0.0","71178","p86x33mjzdl","gazelle","null","<div style=""font-size:60px; color: black;"">+</div>","","","","","","","","","","",""
"","null","image-keyboard-response","15","2.0.0","73182","p86x33mjzdl","gazelle","null","stimuli\STATE\USED\Sdishes1.JPG","","","","","Memory","false","null","","","",""
"","null","html-keyboard-response","16","2.0.0","73684","p86x33mjzdl","gazelle","null","<div style=""font-size:60px; color: black;"">+</div>","","","","","","","","","","",""
"","null","image-keyboard-response","17","2.0.0","75688","p86x33mjzdl","gazelle","null","stimuli\STATE\USED\Srainbowslice2.jpg","","","","","Memory","false","null","","","",""
"","null","html-keyboard-response","18","2.0.0","76191","p86x33mjzdl","gazelle","null","<div style=""font-size:60px; color: black;"">+</div>","","","","","","","","","","",""
"","null","image-keyboard-response","19","2.0.0","78195","p86x33mjzdl","gazelle","null","stimuli\STATE\USED\Saccordion1.jpg","","","","","Memory","false","null","","","",""
"","null","html-keyboard-response","20","2.0.0","78698","p86x33mjzdl","gazelle","null","<div style=""font-size:60px; color: black;"">+</div>","","","","","","","","","","",""
"","null","image-keyboard-response","21","2.0.0","80701","p86x33mjzdl","gazelle","null","stimuli\EXEMPLAR\USED\Emedal2.jpg","","","","","Memory","false","null","","","",""
"","null","html-keyboard-response","22","2.0.0","81204","p86x33mjzdl","gazelle","null","<div style=""font-size:60px; color: black;"">+</div>","","","","","","","","","","",""
"","null","image-keyboard-response","23","2.0.0","83208","p86x33mjzdl","gazelle","null","stimuli\STATE\USED\Sbriefcasemetal2.JPG","","","","","Memory","false","null","","","",""
"","null","html-keyboard-response","24","2.0.0","83711","p86x33mjzdl","gazelle","null","<div style=""font-size:60px; color: black;"">+</div>","","","","","","","","","","",""
"","null","image-keyboard-response","25","2.0.0","85715","p86x33mjzdl","gazelle","null","stimuli\EXEMPLAR\USED\Eicecream1.jpg","","","","","Memory","false","null","","","",""
"","null","html-keyboard-response","26","2.0.0","86217","p86x33mjzdl","gazelle","null","<div style=""font-size:60px; color: black;"">+</div>","","","","","","","","","","",""
"","null","image-keyboard-response","27","2.0.0","88221","p86x33mjzdl","gazelle","null","stimuli\EXEMPLAR\USED\Etoyhand2.jpg","","","","","Memory","false","null","","","",""
"","null","html-keyboard-response","28","2.0.0","88723","p86x33mjzdl","gazelle","null","<div style=""font-size:60px; color: black;"">+</div>","","","","","","","","","","",""
"","null","image-keyboard-response","29","2.0.0","90727","p86x33mjzdl","gazelle","null","stimuli\STATE\USED\Sapple1.jpg","","","","","Memory","false","null","","","",""
"","null","html-keyboard-response","30","2.0.0","91229","p86x33mjzdl","gazelle","null","<div style=""font-size:60px; color: black;"">+</div>","","","","","","","","","","",""
"","null","image-keyboard-response","31","2.0.0","93233","p86x33mjzdl","gazelle","null","stimuli\EXEMPLAR\USED\Etoykeys2.JPG","","","","","Memory","false","null","","","",""
"","null","html-keyboard-response","32","2.0.0","93736","p86x33mjzdl","gazelle","null","<div style=""font-size:60px; color: black;"">+</div>","","","","","","","","","","",""
"","833","image-keyboard-response","33","2.0.0","95740","p86x33mjzdl","gazelle"," ","stimuli\EXEMPLAR\USED\Eicecream1.jpg","","","","","Memory","true","true","","","",""
"","null","html-keyboard-response","34","2.0.0","96242","p86x33mjzdl","gazelle","null","<div style=""font-size:60px; color: green;"">+</div>","","","","","","","","","","",""
"","null","image-keyboard-response","35","2.0.0","98245","p86x33mjzdl","gazelle","null","stimuli\EXEMPLAR\USED\Ecalculator1.jpg","","","","","Memory","false","null","","","",""
"","null","html-keyboard-response","36","2.0.0","98748","p86x33mjzdl","gazelle","null","<div style=""font-size:60px; color: black;"">+</div>","","","","","","","","","","",""
"","null","image-keyboard-response","37","2.0.0","100751","p86x33mjzdl","gazelle","null","stimuli\EXEMPLAR\USED\Etractor2.jpg","","","","","Memory","false","null","","","",""
"","null","html-keyboard-response","38","2.0.0","101253","p86x33mjzdl","gazelle","null","<div style=""font-size:60px; color: black;"">+</div>","","","","","","","","","","",""
"","null","image-keyboard-response","39","2.0.0","103257","p86x33mjzdl","gazelle","null","stimuli\EXEMPLAR\USED\Eteapot2.JPG","","","","","Memory","false","null","","","",""
"","null","html-keyboard-response","40","2.0.0","103759","p86x33mjzdl","gazelle","null","<div style=""font-size:60px; color: black;"">+</div>","","","","","","","","","","",""
"","null","image-keyboard-response","41","2.0.0","105762","p86x33mjzdl","gazelle","null","stimuli\EXEMPLAR\USED\Etrain1.jpg","","","","","Memory","false","null","","","",""
"","null","html-keyboard-response","42","2.0.0","106264","p86x33mjzdl","gazelle","null","<div style=""font-size:60px; color: black;"">+</div>","","","","","","","","","","",""
"","null","image-keyboard-response","43","2.0.0","108268","p86x33mjzdl","gazelle","null","stimuli\EXEMPLAR\USED\Edinosaur1.jpg","","","","","Memory","false","null","","","",""
"","null","html-keyboard-response","44","2.0.0","108770","p86x33mjzdl","gazelle","null","<div style=""font-size:60px; color: black;"">+</div>","","","","","","","","","","",""
"","null","image-keyboard-response","45","2.0.0","110774","p86x33mjzdl","gazelle","null","stimuli\EXEMPLAR\USED\Echopsticks1.jpg","","","","","Memory","false","null","","","",""
"","null","html-keyboard-response","46","2.0.0","111277","p86x33mjzdl","gazelle","null","<div style=""font-size:60px; color: black;"">+</div>","","","","","","","","","","",""
"","null","image-keyboard-response","47","2.0.0","113281","p86x33mjzdl","gazelle","null","stimuli\STATE\USED\Spumpkinpie1.jpg","","","","","Memory","false","null","","","",""
"","null","html-keyboard-response","48","2.0.0","113783","p86x33mjzdl","gazelle","null","<div style=""font-size:60px; color: black;"">+</div>","","","","","","","","","","",""
"","null","image-keyboard-response","49","2.0.0","115787","p86x33mjzdl","gazelle","null","stimuli\EXEMPLAR\USED\Emuffin2.jpg","","","","","Memory","false","null","","","",""
"","null","html-keyboard-response","50","2.0.0","116290","p86x33mjzdl","gazelle","null","<div style=""font-size:60px; color: black;"">+</div>","","","","","","","","","","",""
"","675","image-keyboard-response","51","2.0.0","118294","p86x33mjzdl","gazelle"," ","stimuli\EXEMPLAR\USED\Edinosaur1.jpg","","","","","Memory","true","true","","","",""
"","null","html-keyboard-response","52","2.0.0","118796","p86x33mjzdl","gazelle","null","<div style=""font-size:60px; color: green;"">+</div>","","","","","","","","","","",""
"","null","image-keyboard-response","53","2.0.0","120800","p86x33mjzdl","gazelle","null","stimuli\STATE\USED\Sapplesgreenbasket1.jpg","","","","","Memory","false","null","","","",""
"","null","html-keyboard-response","54","2.0.0","121303","p86x33mjzdl","gazelle","null","<div style=""font-size:60px; color: black;"">+</div>","","","","","","","","","","",""
"","null","image-keyboard-response","55","2.0.0","123306","p86x33mjzdl","gazelle","null","stimuli\EXEMPLAR\USED\Emuffler2.jpg","","","","","Memory","false","null","","","",""
"","null","html-keyboard-response","56","2.0.0","123808","p86x33mjzdl","gazelle","null","<div style=""font-size:60px; color: black;"">+</div>","","","","","","","","","","",""
"","null","image-keyboard-response","57","2.0.0","125811","p86x33mjzdl","gazelle","null","stimuli\STATE\USED\Shairbrush2.jpg","","","","","Memory","false","null","","","",""
"","null","html-keyboard-response","58","2.0.0","126314","p86x33mjzdl","gazelle","null","<div style=""font-size:60px; color: black;"">+</div>","","","","","","","","","","",""
"","null","image-keyboard-response","59","2.0.0","128318","p86x33mjzdl","gazelle","null","stimuli\EXEMPLAR\USED\Epiano2.jpg","","","","","Memory","false","null","","","",""
"","null","html-keyboard-response","60","2.0.0","128821","p86x33mjzdl","gazelle","null","<div style=""font-size:60px; color: black;"">+</div>","","","","","","","","","","",""
"","817","image-keyboard-response","61","2.0.0","130825","p86x33mjzdl","gazelle"," ","stimuli\STATE\USED\Sapplesgreenbasket1.jpg","","","","","Memory","true","true","","","",""
"","null","html-keyboard-response","62","2.0.0","131327","p86x33mjzdl","gazelle","null","<div style=""font-size:60px; color: green;"">+</div>","","","","","","","","","","",""
"","null","image-keyboard-response","63","2.0.0","133331","p86x33mjzdl","gazelle","null","stimuli\EXEMPLAR\USED\Escroll2.jpg","","","","","Memory","false","null","","","",""
"","null","html-keyboard-response","64","2.0.0","133833","p86x33mjzdl","gazelle","null","<div style=""font-size:60px; color: black;"">+</div>","","","","","","","","","","",""
"","null","image-keyboard-response","65","2.0.0","135836","p86x33mjzdl","gazelle","null","stimuli\STATE\USED\Sapplesredbasket1.JPG","","","","","Memory","false","null","","","",""
"","null","html-keyboard-response","66","2.0.0","136339","p86x33mjzdl","gazelle","null","<div style=""font-size:60px; color: black;"">+</div>","","","","","","","","","","",""
"","null","image-keyboard-response","67","2.0.0","138343","p86x33mjzdl","gazelle","null","stimuli\EXEMPLAR\USED\Ecamera2.jpg","","","","","Memory","false","null","","","",""
"","null","html-keyboard-response","68","2.0.0","138846","p86x33mjzdl","gazelle","null","<div style=""font-size:60px; color: black;"">+</div>","","","","","","","","","","",""
"","null","image-keyboard-response","69","2.0.0","140850","p86x33mjzdl","gazelle","null","stimuli\STATE\USED\Snapkins1.jpg","","","","","Memory","false","null","","","",""
"","null","html-keyboard-response","70","2.0.0","141352","p86x33mjzdl","gazelle","null","<div style=""font-size:60px; color: black;"">+</div>","","","","","","","","","","",""
"","null","image-keyboard-response","71","2.0.0","143356","p86x33mjzdl","gazelle","null","stimuli\EXEMPLAR\USED\Epotatochips2.jpg","","","","","Memory","false","null","","","",""
"","null","html-keyboard-response","72","2.0.0","143858","p86x33mjzdl","gazelle","null","<div style=""font-size:60px; color: black;"">+</div>","","","","","","","","","","",""
"","null","image-keyboard-response","73","2.0.0","145862","p86x33mjzdl","gazelle","null","stimuli\STATE\USED\Sboxwhite2.jpg","","","","","Memory","false","null","","","",""
"","null","html-keyboard-response","74","2.0.0","146365","p86x33mjzdl","gazelle","null","<div style=""font-size:60px; color: black;"">+</div>","","","","","","","","","","",""
"","708","image-keyboard-response","75","2.0.0","148368","p86x33mjzdl","gazelle"," ","stimuli\EXEMPLAR\USED\Ecamera2.jpg","","","","","Memory","true","true","","","",""
"","null","html-keyboard-response","76","2.0.0","148871","p86x33mjzdl","gazelle","null","<div style=""font-size:60px; color: green;"">+</div>","","","","","","","","","","",""
"","null","image-keyboard-response","77","2.0.0","150874","p86x33mjzdl","gazelle","null","stimuli\EXEMPLAR\USED\Ebicycle1.jpg","","","","","Memory","false","null","","","",""
"","null","html-keyboard-response","78","2.0.0","151377","p86x33mjzdl","gazelle","null","<div style=""font-size:60px; color: black;"">+</div>","","","","","","","","","","",""
"","null","image-keyboard-response","79","2.0.0","153380","p86x33mjzdl","gazelle","null","stimuli\EXEMPLAR\USED\Ebell1.jpg","","","","","Memory","false","null","","","",""
"","null","html-keyboard-response","80","2.0.0","153883","p86x33mjzdl","gazelle","null","<div style=""font-size:60px; color: black;"">+</div>","","","","","","","","","","",""
"","null","image-keyboard-response","81","2.0.0","155887","p86x33mjzdl","gazelle","null","stimuli\EXEMPLAR\USED\Echocolatebar2.jpg","","","","","Memory","false","null","","","",""
"","null","html-keyboard-response","82","2.0.0","156389","p86x33mjzdl","gazelle","null","<div style=""font-size:60px; color: black;"">+</div>","","","","","","","","","","",""
"","null","image-keyboard-response","83","2.0.0","158392","p86x33mjzdl","gazelle","null","stimuli\STATE\USED\Swaffleiron1.jpg","","","","","Memory","false","null","","","",""
"","null","html-keyboard-response","84","2.0.0","158895","p86x33mjzdl","gazelle","null","<div style=""font-size:60px; color: black;"">+</div>","","","","","","","","","","",""
"","null","image-keyboard-response","85","2.0.0","160898","p86x33mjzdl","gazelle","null","stimuli\STATE\USED\Sscales1.jpg","","","","","Memory","false","null","","","",""
"","null","html-keyboard-response","86","2.0.0","161401","p86x33mjzdl","gazelle","null","<div style=""font-size:60px; color: black;"">+</div>","","","","","","","","","","",""
"","null","image-keyboard-response","87","2.0.0","163404","p86x33mjzdl","gazelle","null","stimuli\EXEMPLAR\USED\Erabbit1.jpg","","","","","Memory","false","null","","","",""
"","null","html-keyboard-response","88","2.0.0","163906","p86x33mjzdl","gazelle","null","<div style=""font-size:60px; color: black;"">+</div>","","","","","","","","","","",""
"","null","image-keyboard-response","89","2.0.0","165910","p86x33mjzdl","gazelle","null","stimuli\STATE\USED\Sjuiceglass2.JPG","","","","","Memory","false","null","","","",""
"","null","html-keyboard-response","90","2.0.0","166413","p86x33mjzdl","gazelle","null","<div style=""font-size:60px; color: black;"">+</div>","","","","","","","","","","",""
"","null","image-keyboard-response","91","2.0.0","168416","p86x33mjzdl","gazelle","null","stimuli\STATE\USED\Sbook2.JPG","","","","","Memory","false","null","","","",""
"","null","html-keyboard-response","92","2.0.0","168920","p86x33mjzdl","gazelle","null","<div style=""font-size:60px; color: black;"">+</div>","","","","","","","","","","",""
"","null","image-keyboard-response","93","2.0.0","170923","p86x33mjzdl","gazelle","null","stimuli\STATE\USED\Sdoughhands2.jpg","","","","","Memory","false","null","","","",""
"","null","html-keyboard-response","94","2.0.0","171426","p86x33mjzdl","gazelle","null","<div style=""font-size:60px; color: black;"">+</div>","","","","","","","","","","",""
"","null","image-keyboard-response","95","2.0.0","173430","p86x33mjzdl","gazelle","null","stimuli\EXEMPLAR\USED\Elog1.jpg","","","","","Memory","false","null","","","",""
"","null","html-keyboard-response","96","2.0.0","173938","p86x33mjzdl","gazelle","null","<div style=""font-size:60px; color: black;"">+</div>","","","","","","","","","","",""
"","757","image-keyboard-response","97","2.0.0","175941","p86x33mjzdl","gazelle"," ","stimuli\STATE\USED\Sjuiceglass2.JPG","","","","","Memory","true","true","","","",""
"","null","html-keyboard-response","98","2.0.0","176444","p86x33mjzdl","gazelle","null","<div style=""font-size:60px; color: green;"">+</div>","","","","","","","","","","",""
"","null","image-keyboard-response","99","2.0.0","178448","p86x33mjzdl","gazelle","null","stimuli\STATE\USED\Sseatbelt2.jpg","","","","","Memory","false","null","","","",""
"","null","html-keyboard-response","100","2.0.0","178950","p86x33mjzdl","gazelle","null","<div style=""font-size:60px; color: black;"">+</div>","","","","","","","","","","",""
"","null","image-keyboard-response","101","2.0.0","180953","p86x33mjzdl","gazelle","null","stimuli\EXEMPLAR\USED\Emitt1.jpg","","","","","Memory","false","null","","","",""
"","null","html-keyboard-response","102","2.0.0","181456","p86x33mjzdl","gazelle","null","<div style=""font-size:60px; color: black;"">+</div>","","","","","","","","","","",""
"","null","image-keyboard-response","103","2.0.0","183459","p86x33mjzdl","gazelle","null","stimuli\EXEMPLAR\USED\Eheadphones2.jpg","","","","","Memory","false","null","","","",""
"","null","html-keyboard-response","104","2.0.0","183961","p86x33mjzdl","gazelle","null","<div style=""font-size:60px; color: black;"">+</div>","","","","","","","","","","",""
"","null","image-keyboard-response","105","2.0.0","185965","p86x33mjzdl","gazelle","null","stimuli\EXEMPLAR\USED\Espraybottle2.jpg","","","","","Memory","false","null","","","",""
"","null","html-keyboard-response","106","2.0.0","186468","p86x33mjzdl","gazelle","null","<div style=""font-size:60px; color: black;"">+</div>","","","","","","","","","","",""
"","2095","html-button-response","107","2.0.0","188566","p86x33mjzdl","gazelle","0","Are you still there?","","","","","Attention Check","","","","","",""
"","null","image-keyboard-response","108","2.0.0","190570","p86x33mjzdl","gazelle","null","stimuli\EXEMPLAR\USED\Eladder1.jpg","","","","","Memory","false","null","","","",""
"","null","html-keyboard-response","109","2.0.0","191072","p86x33mjzdl","gazelle","null","<div style=""font-size:60px; color: black;"">+</div>","","","","","","","","","","",""
"","728","image-keyboard-response","110","2.0.0","193076","p86x33mjzdl","gazelle"," ","stimuli\EXEMPLAR\USED\Emitt1.jpg","","","","","Memory","true","true","","","",""
"","null","html-keyboard-response","111","2.0.0","193579","p86x33mjzdl","gazelle","null","<div style=""font-size:60px; color: green;"">+</div>","","","","","","","","","","",""
"","null","image-keyboard-response","112","2.0.0","195581","p86x33mjzdl","gazelle","null","stimuli\STATE\USED\Spadlock2.jpg","","","","","Memory","false","null","","","",""
"","null","html-keyboard-response","113","2.0.0","196083","p86x33mjzdl","gazelle","null","<div style=""font-size:60px; color: black;"">+</div>","","","","","","","","","","",""
"","null","image-keyboard-response","114","2.0.0","198086","p86x33mjzdl","gazelle","null","stimuli\STATE\USED\Sbabytoy1.JPG","","","","","Memory","false","null","","","",""
"","null","html-keyboard-response","115","2.0.0","198589","p86x33mjzdl","gazelle","null","<div style=""font-size:60px; color: black;"">+</div>","","","","","","","","","","",""
"","null","image-keyboard-response","116","2.0.0","200592","p86x33mjzdl","gazelle","null","stimuli\EXEMPLAR\USED\Elei1.jpg","","","","","Memory","false","null","","","",""
"","null","html-keyboard-response","117","2.0.0","201095","p86x33mjzdl","gazelle","null","<div style=""font-size:60px; color: black;"">+</div>","","","","","","","","","","",""
"","null","image-keyboard-response","118","2.0.0","203098","p86x33mjzdl","gazelle","null","stimuli\EXEMPLAR\USED\Etrophy1.jpg","","","","","Memory","false","null","","","",""
"","null","html-keyboard-response","119","2.0.0","203600","p86x33mjzdl","gazelle","null","<div style=""font-size:60px; color: black;"">+</div>","","","","","","","","","","",""
"","null","image-keyboard-response","120","2.0.0","205604","p86x33mjzdl","gazelle","null","stimuli\EXEMPLAR\USED\Eglobe1.jpg","","","","","Memory","false","null","","","",""
"","null","html-keyboard-response","121","2.0.0","206106","p86x33mjzdl","gazelle","null","<div style=""font-size:60px; color: black;"">+</div>","","","","","","","","","","",""
"","null","image-keyboard-response","122","2.0.0","208109","p86x33mjzdl","gazelle","null","stimuli\EXEMPLAR\USED\Erazor2.jpg","","","","","Memory","false","null","","","",""
"","null","html-keyboard-response","123","2.0.0","208612","p86x33mjzdl","gazelle","null","<div style=""font-size:60px; color: black;"">+</div>","","","","","","","","","","",""
"","null","image-keyboard-response","124","2.0.0","210615","p86x33mjzdl","gazelle","null","stimuli\STATE\USED\Sphoneold2.jpg","","","","","Memory","false","null","","","",""
"","null","html-keyboard-response","125","2.0.0","211118","p86x33mjzdl","gazelle","null","<div style=""font-size:60px; color: black;"">+</div>","","","","","","","","","","",""
"","null","image-keyboard-response","126","2.0.0","213122","p86x33mjzdl","gazelle","null","stimuli\EXEMPLAR\USED\Emoney2.jpg","","","","","Memory","false","null","","","",""
"","null","html-keyboard-response","127","2.0.0","213624","p86x33mjzdl","gazelle","null","<div style=""font-size:60px; color: black;"">+</div>","","","","","","","","","","",""
"","null","image-keyboard-response","128","2.0.0","215628","p86x33mjzdl","gazelle","null","stimuli\STATE\USED\Sdie1.jpg","","","","","Memory","false","null","","","",""
"","null","html-keyboard-response","129","2.0.0","216130","p86x33mjzdl","gazelle","null","<div style=""font-size:60px; color: black;"">+</div>","","","","","","","","","","",""
"","null","image-keyboard-response","130","2.0.0","218134","p86x33mjzdl","gazelle","null","stimuli\STATE\USED\Spiggybank1.jpg","","","","","Memory","false","null","","","",""
"","null","html-keyboard-response","131","2.0.0","218637","p86x33mjzdl","gazelle","null","<div style=""font-size:60px; color: black;"">+</div>","","","","","","","","","","",""
"","null","image-keyboard-response","132","2.0.0","220641","p86x33mjzdl","gazelle","null","stimuli\EXEMPLAR\USED\Etoywrench2.jpg","","","","","Memory","false","null","","","",""
"","null","html-keyboard-response","133","2.0.0","221143","p86x33mjzdl","gazelle","null","<div style=""font-size:60px; color: black;"">+</div>","","","","","","","","","","",""
"","null","image-keyboard-response","134","2.0.0","223147","p86x33mjzdl","gazelle","null","stimuli\EXEMPLAR\USED\Epeppers1.jpg","","","","","Memory","false","null","","","",""
"","null","html-keyboard-response","135","2.0.0","223649","p86x33mjzdl","gazelle","null","<div style=""font-size:60px; color: black;"">+</div>","","","","","","","","","","",""
"","801","image-keyboard-response","136","2.0.0","225652","p86x33mjzdl","gazelle"," ","stimuli\STATE\USED\Sdie1.jpg","","","","","Memory","true","true","","","",""
"","null","html-keyboard-response","137","2.0.0","226155","p86x33mjzdl","gazelle","null","<div style=""font-size:60px; color: green;"">+</div>","","","","","","","","","","",""
"","null","image-keyboard-response","138","2.0.0","228158","p86x33mjzdl","gazelle","null","stimuli\STATE\USED\Sdryer2.jpg","","","","","Memory","false","null","","","",""
"","null","html-keyboard-response","139","2.0.0","228660","p86x33mjzdl","gazelle","null","<div style=""font-size:60px; color: black;"">+</div>","","","","","","","","","","",""
"","null","image-keyboard-response","140","2.0.0","230664","p86x33mjzdl","gazelle","null","stimuli\STATE\USED\Sflask1.jpg","","","","","Memory","false","null","","","",""
"","null","html-keyboard-response","141","2.0.0","231167","p86x33mjzdl","gazelle","null","<div style=""font-size:60px; color: black;"">+</div>","","","","","","","","","","",""
"","null","image-keyboard-response","142","2.0.0","233170","p86x33mjzdl","gazelle","null","stimuli\EXEMPLAR\USED\Ebrick1.jpg","","","","","Memory","false","null","","","",""
"","null","html-keyboard-response","143","2.0.0","233673","p86x33mjzdl","gazelle","null","<div style=""font-size:60px; color: black;"">+</div>","","","","","","","","","","",""
"","null","image-keyboard-response","144","2.0.0","235675","p86x33mjzdl","gazelle","null","stimuli\STATE\USED\Sdishwasher1.jpg","","","","","Memory","false","null","","","",""
"","null","html-keyboard-response","145","2.0.0","236178","p86x33mjzdl","gazelle","null","<div style=""font-size:60px; color: black;"">+</div>","","","","","","","","","","",""
"","null","image-keyboard-response","146","2.0.0","238181","p86x33mjzdl","gazelle","null","stimuli\STATE\USED\Siron2.jpg","","","","","Memory","false","null","","","",""
"","null","html-keyboard-response","147","2.0.0","238684","p86x33mjzdl","gazelle","null","<div style=""font-size:60px; color: black;"">+</div>","","","","","","","","","","",""
"","635","image-keyboard-response","148","2.0.0","240687","p86x33mjzdl","gazelle"," ","stimuli\STATE\USED\Sflask1.jpg","","","","","Memory","true","true","","","",""
"","null","html-keyboard-response","149","2.0.0","241190","p86x33mjzdl","gazelle","null","<div style=""font-size:60px; color: green;"">+</div>","","","","","","","","","","",""
"","null","image-keyboard-response","150","2.0.0","243193","p86x33mjzdl","gazelle","null","stimuli\STATE\USED\Sbelt1.jpg","","","","","Memory","false","null","","","",""
"","null","html-keyboard-response","151","2.0.0","243695","p86x33mjzdl","gazelle","null","<div style=""font-size:60px; color: black;"">+</div>","","","","","","","","","","",""
"","null","image-keyboard-response","152","2.0.0","245698","p86x33mjzdl","gazelle","null","stimuli\EXEMPLAR\USED\Epliers1.jpg","","","","","Memory","false","null","","","",""
"","null","html-keyboard-response","153","2.0.0","246199","p86x33mjzdl","gazelle","null","<div style=""font-size:60px; color: black;"">+</div>","","","","","","","","","","",""
"","null","image-keyboard-response","154","2.0.0","248203","p86x33mjzdl","gazelle","null","stimuli\EXEMPLAR\USED\Ewineglass2.jpg","","","","","Memory","false","null","","","",""
"","null","html-keyboard-response","155","2.0.0","248705","p86x33mjzdl","gazelle","null","<div style=""font-size:60px; color: black;"">+</div>","","","","","","","","","","",""
"","null","image-keyboard-response","156","2.0.0","250708","p86x33mjzdl","gazelle","null","stimuli\STATE\USED\Shandmirror1.jpg","","","","","Memory","false","null","","","",""
"","null","html-keyboard-response","157","2.0.0","251211","p86x33mjzdl","gazelle","null","<div style=""font-size:60px; color: black;"">+</div>","","","","","","","","","","",""
"","1001","image-keyboard-response","158","2.0.0","253214","p86x33mjzdl","gazelle"," ","stimuli\STATE\USED\Sbelt1.jpg","","","","","Memory","true","true","","","",""
"","null","html-keyboard-response","159","2.0.0","253717","p86x33mjzdl","gazelle","null","<div style=""font-size:60px; color: green;"">+</div>","","","","","","","","","","",""
"","null","image-keyboard-response","160","2.0.0","255720","p86x33mjzdl","gazelle","null","stimuli\STATE\USED\Spolarbear2.jpg","","","","","Memory","false","null","","","",""
"","null","html-keyboard-response","161","2.0.0","256223","p86x33mjzdl","gazelle","null","<div style=""font-size:60px; color: black;"">+</div>","","","","","","","","","","",""
"","null","image-keyboard-response","162","2.0.0","258226","p86x33mjzdl","gazelle","null","stimuli\STATE\USED\Stypewriter1.jpg","","","","","Memory","false","null","","","",""
"","null","html-keyboard-response","163","2.0.0","258729","p86x33mjzdl","gazelle","null","<div style=""font-size:60px; color: black;"">+</div>","","","","","","","","","","",""
"","null","image-keyboard-response","164","2.0.0","260732","p86x33mjzdl","gazelle","null","stimuli\EXEMPLAR\USED\Egame2.jpg","","","","","Memory","false","null","","","",""
"","null","html-keyboard-response","165","2.0.0","261235","p86x33mjzdl","gazelle","null","<div style=""font-size:60px; color: black;"">+</div>","","","","","","","","","","",""
"","null","image-keyboard-response","166","2.0.0","263238","p86x33mjzdl","gazelle","null","stimuli\STATE\USED\Speppers2.jpg","","","","","Memory","false","null","","","",""
"","null","html-keyboard-response","167","2.0.0","263741","p86x33mjzdl","gazelle","null","<div style=""font-size:60px; color: black;"">+</div>","","","","","","","","","","",""
"","null","image-keyboard-response","168","2.0.0","265744","p86x33mjzdl","gazelle","null","stimuli\EXEMPLAR\USED\Earch1.jpg","","","","","Memory","false","null","","","",""
"","null","html-keyboard-response","169","2.0.0","266247","p86x33mjzdl","gazelle","null","<div style=""font-size:60px; color: black;"">+</div>","","","","","","","","","","",""
"","null","image-keyboard-response","170","2.0.0","268250","p86x33mjzdl","gazelle","null","stimuli\STATE\USED\Sdresser1.jpg","","","","","Memory","false","null","","","",""
"","null","html-keyboard-response","171","2.0.0","268753","p86x33mjzdl","gazelle","null","<div style=""font-size:60px; color: black;"">+</div>","","","","","","","","","","",""
"","1560","image-keyboard-response","172","2.0.0","270757","p86x33mjzdl","gazelle"," ","stimuli\EXEMPLAR\USED\Eholepunch1.jpg","","","","","Memory","false","false","","","",""
"","null","html-keyboard-response","173","2.0.0","271260","p86x33mjzdl","gazelle","null","<div style=""font-size:60px; color: red;"">+</div>","","","","","","","","","","",""
"","null","image-keyboard-response","174","2.0.0","273263","p86x33mjzdl","gazelle","null","stimuli\STATE\USED\Sbrushes2.jpg","","","","","Memory","false","null","","","",""
"","null","html-keyboard-response","175","2.0.0","273767","p86x33mjzdl","gazelle","null","<div style=""font-size:60px; color: black;"">+</div>","","","","","","","","","","",""
"","null","image-keyboard-response","176","2.0.0","275770","p86x33mjzdl","gazelle","null","stimuli\STATE\USED\Slaptop1.JPG","","","","","Memory","false","null","","","",""
"","null","html-keyboard-response","177","2.0.0","276273","p86x33mjzdl","gazelle","null","<div style=""font-size:60px; color: black;"">+</div>","","","","","","","","","","",""
"","null","image-keyboard-response","178","2.0.0","278276","p86x33mjzdl","gazelle","null","stimuli\STATE\USED\Sdrum1.jpg","","","","","Memory","false","null","","","",""
"","null","html-keyboard-response","179","2.0.0","278779","p86x33mjzdl","gazelle","null","<div style=""font-size:60px; color: black;"">+</div>","","","","","","","","","","",""
"","null","image-keyboard-response","180","2.0.0","280783","p86x33mjzdl","gazelle","null","stimuli\EXEMPLAR\USED\Ehorn1.jpg","","","","","Memory","false","null","","","",""
"","null","html-keyboard-response","181","2.0.0","281286","p86x33mjzdl","gazelle","null","<div style=""font-size:60px; color: black;"">+</div>","","","","","","","","","","",""
"","null","image-keyboard-response","182","2.0.0","283289","p86x33mjzdl","gazelle","null","stimuli\EXEMPLAR\USED\Ebonzai2.jpg","","","","","Memory","false","null","","","",""
"","null","html-keyboard-response","183","2.0.0","283792","p86x33mjzdl","gazelle","null","<div style=""font-size:60px; color: black;"">+</div>","","","","","","","","","","",""
"","null","image-keyboard-response","184","2.0.0","285795","p86x33mjzdl","gazelle","null","stimuli\STATE\USED\Sskull1.jpg","","","","","Memory","false","null","","","",""
"","null","html-keyboard-response","185","2.0.0","286298","p86x33mjzdl","gazelle","null","<div style=""font-size:60px; color: black;"">+</div>","","","","","","","","","","",""
"","null","image-keyboard-response","186","2.0.0","288302","p86x33mjzdl","gazelle","null","stimuli\EXEMPLAR\USED\Ehelmet1.jpg","","","","","Memory","false","null","","","",""
"","null","html-keyboard-response","187","2.0.0","288804","p86x33mjzdl","gazelle","null","<div style=""font-size:60px; color: black;"">+</div>","","","","","","","","","","",""
"","null","image-keyboard-response","188","2.0.0","290808","p86x33mjzdl","gazelle","null","stimuli\STATE\USED\Sbooks2.JPG","","","","","Memory","false","null","","","",""
"","null","html-keyboard-response","189","2.0.0","291310","p86x33mjzdl","gazelle","null","<div style=""font-size:60px; color: black;"">+</div>","","","","","","","","","","",""
"","null","image-keyboard-response","190","2.0.0","293314","p86x33mjzdl","gazelle","null","stimuli\STATE\USED\Spicnicbasket1.jpg","","","","","Memory","false","null","","","",""
"","null","html-keyboard-response","191","2.0.0","293816","p86x33mjzdl","gazelle","null","<div style=""font-size:60px; color: black;"">+</div>","","","","","","","","","","",""
"","732","image-keyboard-response","192","2.0.0","295819","p86x33mjzdl","gazelle"," ","stimuli\STATE\USED\Sskull1.jpg","","","","","Memory","true","true","","","",""
"","null","html-keyboard-response","193","2.0.0","296322","p86x33mjzdl","gazelle","null","<div style=""font-size:60px; color: green;"">+</div>","","","","","","","","","","",""
"","null","image-keyboard-response","194","2.0.0","298325","p86x33mjzdl","gazelle","null","stimuli\STATE\USED\Sclipboard2.jpg","","","","","Memory","false","null","","","",""
"","null","html-keyboard-response","195","2.0.0","298828","p86x33mjzdl","gazelle","null","<div style=""font-size:60px; color: black;"">+</div>","","","","","","","","","","",""
"","null","image-keyboard-response","196","2.0.0","300831","p86x33mjzdl","gazelle","null","stimuli\STATE\USED\Schinesefoodbox1.jpg","","","","","Memory","false","null","","","",""
"","null","html-keyboard-response","197","2.0.0","301333","p86x33mjzdl","gazelle","null","<div style=""font-size:60px; color: black;"">+</div>","","","","","","","","","","",""
"","null","image-keyboard-response","198","2.0.0","303337","p86x33mjzdl","gazelle","null","stimuli\EXEMPLAR\USED\Estapler1.jpg","","","","","Memory","false","null","","","",""
"","null","html-keyboard-response","199","2.0.0","303840","p86x33mjzdl","gazelle","null","<div style=""font-size:60px; color: black;"">+</div>","","","","","","","","","","",""
"","null","image-keyboard-response","200","2.0.0","305843","p86x33mjzdl","gazelle","null","stimuli\STATE\USED\Spatiotable2.jpg","","","","","Memory","false","null","","","",""
"","null","html-keyboard-response","201","2.0.0","306346","p86x33mjzdl","gazelle","null","<div style=""font-size:60px; color: black;"">+</div>","","","","","","","","","","",""
"","null","image-keyboard-response","202","2.0.0","308350","p86x33mjzdl","gazelle","null","stimuli\EXEMPLAR\USED\Eturtle1.jpg","","","","","Memory","false","null","","","",""
"","null","html-keyboard-response","203","2.0.0","308852","p86x33mjzdl","gazelle","null","<div style=""font-size:60px; color: black;"">+</div>","","","","","","","","","","",""
"","null","image-keyboard-response","204","2.0.0","310855","p86x33mjzdl","gazelle","null","stimuli\EXEMPLAR\USED\Enozzle2.jpg","","","","","Memory","false","null","","","",""
"","null","html-keyboard-response","205","2.0.0","311357","p86x33mjzdl","gazelle","null","<div style=""font-size:60px; color: black;"">+</div>","","","","","","","","","","",""
"","null","image-keyboard-response","206","2.0.0","313361","p86x33mjzdl","gazelle","null","stimuli\STATE\USED\Sbrie2.JPG","","","","","Memory","false","null","","","",""
"","null","html-keyboard-response","207","2.0.0","313863","p86x33mjzdl","gazelle","null","<div style=""font-size:60px; color: black;"">+</div>","","","","","","","","","","",""
"","null","image-keyboard-response","208","2.0.0","315867","p86x33mjzdl","gazelle","null","stimuli\EXEMPLAR\USED\Ebunny2.jpg","","","","","Memory","false","null","","","",""
"","null","html-keyboard-response","209","2.0.0","316370","p86x33mjzdl","gazelle","null","<div style=""font-size:60px; color: black;"">+</div>","","","","","","","","","","",""
"","1810","html-button-response","210","2.0.0","318181","p86x33mjzdl","gazelle","0","Are you still there?","","","","","Attention Check","","","","","",""
"","1086","image-keyboard-response","211","2.0.0","320185","p86x33mjzdl","gazelle"," ","stimuli\EXEMPLAR\USED\Eturtle1.jpg","","","","","Memory","true","true","","","",""
"","null","html-keyboard-response","212","2.0.0","320687","p86x33mjzdl","gazelle","null","<div style=""font-size:60px; color: green;"">+</div>","","","","","","","","","","",""
"","null","image-keyboard-response","213","2.0.0","322691","p86x33mjzdl","gazelle","null","stimuli\EXEMPLAR\USED\Esuitcase1.jpg","","","","","Memory","false","null","","","",""
"","null","html-keyboard-response","214","2.0.0","323193","p86x33mjzdl","gazelle","null","<div style=""font-size:60px; color: black;"">+</div>","","","","","","","","","","",""
"","null","image-keyboard-response","215","2.0.0","325197","p86x33mjzdl","gazelle","null","stimuli\STATE\USED\Sdonut1.jpg","","","","","Memory","false","null","","","",""
"","null","html-keyboard-response","216","2.0.0","325699","p86x33mjzdl","gazelle","null","<div style=""font-size:60px; color: black;"">+</div>","","","","","","","","","","",""
"","null","image-keyboard-response","217","2.0.0","327703","p86x33mjzdl","gazelle","null","stimuli\EXEMPLAR\USED\Edispenser1.jpg","","","","","Memory","false","null","","","",""
"","null","html-keyboard-response","218","2.0.0","328205","p86x33mjzdl","gazelle","null","<div style=""font-size:60px; color: black;"">+</div>","","","","","","","","","","",""
"","null","image-keyboard-response","219","2.0.0","330209","p86x33mjzdl","gazelle","null","stimuli\STATE\USED\Smetronome1.jpg","","","","","Memory","false","null","","","",""
"","null","html-keyboard-response","220","2.0.0","330711","p86x33mjzdl","gazelle","null","<div style=""font-size:60px; color: black;"">+</div>","","","","","","","","","","",""
"","null","image-keyboard-response","221","2.0.0","332714","p86x33mjzdl","gazelle","null","stimuli\STATE\USED\Stiger2.jpg","","","","","Memory","false","null","","","",""
"","null","html-keyboard-response","222","2.0.0","333217","p86x33mjzdl","gazelle","null","<div style=""font-size:60px; color: black;"">+</div>","","","","","","","","","","",""
"","1762","image-keyboard-response","223","2.0.0","335221","p86x33mjzdl","gazelle"," ","stimuli\EXEMPLAR\USED\Eelectricbass2.jpg","","","","","Memory","false","false","","","",""
"","null","html-keyboard-response","224","2.0.0","335723","p86x33mjzdl","gazelle","null","<div style=""font-size:60px; color: red;"">+</div>","","","","","","","","","","",""
"","null","image-keyboard-response","225","2.0.0","337727","p86x33mjzdl","gazelle","null","stimuli\STATE\USED\Sredcabbage1.jpg","","","","","Memory","false","null","","","",""
"","null","html-keyboard-response","226","2.0.0","338229","p86x33mjzdl","gazelle","null","<div style=""font-size:60px; color: black;"">+</div>","","","","","","","","","","",""
"","null","image-keyboard-response","227","2.0.0","340233","p86x33mjzdl","gazelle","null","stimuli\STATE\USED\Sscanner2.JPG","","","","","Memory","false","null","","","",""
"","null","html-keyboard-response","228","2.0.0","340736","p86x33mjzdl","gazelle","null","<div style=""font-size:60px; color: black;"">+</div>","","","","","","","","","","",""
"","null","image-keyboard-response","229","2.0.0","342740","p86x33mjzdl","gazelle","null","stimuli\EXEMPLAR\USED\Ecake1.jpg","","","","","Memory","false","null","","","",""
"","null","html-keyboard-response","230","2.0.0","343242","p86x33mjzdl","gazelle","null","<div style=""font-size:60px; color: black;"">+</div>","","","","","","","","","","",""
"","null","image-keyboard-response","231","2.0.0","345246","p86x33mjzdl","gazelle","null","stimuli\STATE\USED\Sseats1.jpg","","","","","Memory","false","null","","","",""
"","null","html-keyboard-response","232","2.0.0","345748","p86x33mjzdl","gazelle","null","<div style=""font-size:60px; color: black;"">+</div>","","","","","","","","","","",""
"","672","image-keyboard-response","233","2.0.0","347751","p86x33mjzdl","gazelle"," ","stimuli\STATE\USED\Spie2.JPG","","","","","Memory","false","false","","","",""
"","null","html-keyboard-response","234","2.0.0","348254","p86x33mjzdl","gazelle","null","<div style=""font-size:60px; color: red;"">+</div>","","","","","","","","","","",""
"","1850","image-keyboard-response","235","2.0.0","350258","p86x33mjzdl","gazelle"," ","stimuli\STATE\USED\Sscanner2.JPG","","","","","Memory","true","true","","","",""
"","null","html-keyboard-response","236","2.0.0","350761","p86x33mjzdl","gazelle","null","<div style=""font-size:60px; color: green;"">+</div>","","","","","","","","","","",""
"","null","image-keyboard-response","237","2.0.0","352764","p86x33mjzdl","gazelle","null","stimuli\STATE\USED\Sscissors1.JPG","","","","","Memory","false","null","","","",""
"","null","html-keyboard-response","238","2.0.0","353266","p86x33mjzdl","gazelle","null","<div style=""font-size:60px; color: black;"">+</div>","","","","","","","","","","",""
"","null","image-keyboard-response","239","2.0.0","355270","p86x33mjzdl","gazelle","null","stimuli\EXEMPLAR\USED\Ebread2.jpg","","","","","Memory","false","null","","","",""
"","null","html-keyboard-response","240","2.0.0","355773","p86x33mjzdl","gazelle","null","<div style=""font-size:60px; color: black;"">+</div>","","","","","","","","","","",""
"","null","image-keyboard-response","241","2.0.0","357776","p86x33mjzdl","gazelle","null","stimuli\STATE\USED\Spotpan1.JPG","","","","","Memory","false","null","","","",""
"","null","html-keyboard-response","242","2.0.0","358278","p86x33mjzdl","gazelle","null","<div style=""font-size:60px; color: black;"">+</div>","","","","","","","","","","",""
"","null","image-keyboard-response","243","2.0.0","360281","p86x33mjzdl","gazelle","null","stimuli\EXEMPLAR\USED\Echeeses2.jpg","","","","","Memory","false","null","","","",""
"","null","html-keyboard-response","244","2.0.0","360783","p86x33mjzdl","gazelle","null","<div style=""font-size:60px; color: black;"">+</div>","","","","","","","","","","",""
"","673","image-keyboard-response","245","2.0.0","362787","p86x33mjzdl","gazelle"," ","stimuli\STATE\USED\Sscissors1.JPG","","","","","Memory","true","true","","","",""
"","null","html-keyboard-response","246","2.0.0","363289","p86x33mjzdl","gazelle","null","<div style=""font-size:60px; color: green;"">+</div>","","","","","","","","","","",""
"","null","image-keyboard-response","247","2.0.0","365293","p86x33mjzdl","gazelle","null","stimuli\STATE\USED\Sstoplight1.jpg","","","","","Memory","false","null","","","",""
"","null","html-keyboard-response","248","2.0.0","365795","p86x33mjzdl","gazelle","null","<div style=""font-size:60px; color: black;"">+</div>","","","","","","","","","","",""
"","1162","image-keyboard-response","249","2.0.0","367798","p86x33mjzdl","gazelle"," ","stimuli\STATE\USED\Slockbox2.jpg","","","","","Memory","false","false","","","",""
"","null","html-keyboard-response","250","2.0.0","368301","p86x33mjzdl","gazelle","null","<div style=""font-size:60px; color: red;"">+</div>","","","","","","","","","","",""
"","null","image-keyboard-response","251","2.0.0","370304","p86x33mjzdl","gazelle","null","stimuli\EXEMPLAR\USED\Etoyplane2.jpg","","","","","Memory","false","null","","","",""
"","null","html-keyboard-response","252","2.0.0","370806","p86x33mjzdl","gazelle","null","<div style=""font-size:60px; color: black;"">+</div>","","","","","","","","","","",""
"","null","image-keyboard-response","253","2.0.0","372809","p86x33mjzdl","gazelle","null","stimuli\EXEMPLAR\USED\Ebinoculars2.jpg","","","","","Memory","false","null","","","",""
"","null","html-keyboard-response","254","2.0.0","373312","p86x33mjzdl","gazelle","null","<div style=""font-size:60px; color: black;"">+</div>","","","","","","","","","","",""
"","null","image-keyboard-response","255","2.0.0","375316","p86x33mjzdl","gazelle","null","stimuli\EXEMPLAR\USED\Eballoon2.jpg","","","","","Memory","false","null","","","",""
"","null","html-keyboard-response","256","2.0.0","375819","p86x33mjzdl","gazelle","null","<div style=""font-size:60px; color: black;"">+</div>","","","","","","","","","","",""
"","null","image-keyboard-response","257","2.0.0","377823","p86x33mjzdl","gazelle","null","stimuli\STATE\USED\Spestle1.jpg","","","","","Memory","false","null","","","",""
"","null","html-keyboard-response","258","2.0.0","378326","p86x33mjzdl","gazelle","null","<div style=""font-size:60px; color: black;"">+</div>","","","","","","","","","","",""
"","748","image-keyboard-response","259","2.0.0","380330","p86x33mjzdl","gazelle"," ","stimuli\EXEMPLAR\USED\Etoyplane2.jpg","","","","","Memory","true","true","","","",""
"","null","html-keyboard-response","260","2.0.0","380833","p86x33mjzdl","gazelle","null","<div style=""font-size:60px; color: green;"">+</div>","","","","","","","","","","",""
"","null","image-keyboard-response","261","2.0.0","382836","p86x33mjzdl","gazelle","null","stimuli\EXEMPLAR\USED\Emicroscope1.jpg","","","","","Memory","false","null","","","",""
"","null","html-keyboard-response","262","2.0.0","383338","p86x33mjzdl","gazelle","null","<div style=""font-size:60px; color: black;"">+</div>","","","","","","","","","","",""
"","null","image-keyboard-response","263","2.0.0","385341","p86x33mjzdl","gazelle","null","stimuli\STATE\USED\Sumbrella2.jpg","","","","","Memory","false","null","","","",""
"","null","html-keyboard-response","264","2.0.0","385844","p86x33mjzdl","gazelle","null","<div style=""font-size:60px; color: black;"">+</div>","","","","","","","","","","",""
"","null","image-keyboard-response","265","2.0.0","387848","p86x33mjzdl","gazelle","null","stimuli\EXEMPLAR\USED\Eplate1.jpg","","","","","Memory","false","null","","","",""
"","null","html-keyboard-response","266","2.0.0","388351","p86x33mjzdl","gazelle","null","<div style=""font-size:60px; color: black;"">+</div>","","","","","","","","","","",""
"","null","image-keyboard-response","267","2.0.0","390354","p86x33mjzdl","gazelle","null","stimuli\STATE\USED\Smedicaltape2.jpg","","","","","Memory","false","null","","","",""
"","null","html-keyboard-response","268","2.0.0","390857","p86x33mjzdl","gazelle","null","<div style=""font-size:60px; color: black;"">+</div>","","","","","","","","","","",""
"","710","image-keyboard-response","269","2.0.0","392860","p86x33mjzdl","gazelle"," ","stimuli\EXEMPLAR\USED\Emicroscope1.jpg","","","","","Memory","true","true","","","",""
"","null","html-keyboard-response","270","2.0.0","393363","p86x33mjzdl","gazelle","null","<div style=""font-size:60px; color: green;"">+</div>","","","","","","","","","","",""
"","null","image-keyboard-response","271","2.0.0","395366","p86x33mjzdl","gazelle","null","stimuli\EXEMPLAR\USED\Estarfish1.jpg","","","","","Memory","false","null","","","",""
"","null","html-keyboard-response","272","2.0.0","395869","p86x33mjzdl","gazelle","null","<div style=""font-size:60px; color: black;"">+</div>","","","","","","","","","","",""
"","null","image-keyboard-response","273","2.0.0","397872","p86x33mjzdl","gazelle","null","stimuli\EXEMPLAR\USED\Esantahat2.jpg","","","","","Memory","false","null","","","",""
"","null","html-keyboard-response","274","2.0.0","398374","p86x33mjzdl","gazelle","null","<div style=""font-size:60px; color: black;"">+</div>","","","","","","","","","","",""
"","null","image-keyboard-response","275","2.0.0","400378","p86x33mjzdl","gazelle","null","stimuli\EXEMPLAR\USED\Ewheelchair2.jpg","","","","","Memory","false","null","","","",""
"","null","html-keyboard-response","276","2.0.0","400880","p86x33mjzdl","gazelle","null","<div style=""font-size:60px; color: black;"">+</div>","","","","","","","","","","",""
"","null","image-keyboard-response","277","2.0.0","402884","p86x33mjzdl","gazelle","null","stimuli\STATE\USED\Scontainer1.JPG","","","","","Memory","false","null","","","",""
"","null","html-keyboard-response","278","2.0.0","403386","p86x33mjzdl","gazelle","null","<div style=""font-size:60px; color: black;"">+</div>","","","","","","","","","","",""
"","null","image-keyboard-response","279","2.0.0","405389","p86x33mjzdl","gazelle","null","stimuli\EXEMPLAR\USED\Etongs1.jpg","","","","","Memory","false","null","","","",""
"","null","html-keyboard-response","280","2.0.0","405892","p86x33mjzdl","gazelle","null","<div style=""font-size:60px; color: black;"">+</div>","","","","","","","","","","",""
"","815","image-keyboard-response","281","2.0.0","407895","p86x33mjzdl","gazelle"," ","stimuli\EXEMPLAR\USED\Esantahat2.jpg","","","","","Memory","true","true","","","",""
"","null","html-keyboard-response","282","2.0.0","408398","p86x33mjzdl","gazelle","null","<div style=""font-size:60px; color: green;"">+</div>","","","","","","","","","","",""
"","null","image-keyboard-response","283","2.0.0","410401","p86x33mjzdl","gazelle","null","stimuli\EXEMPLAR\USED\Efolder1.jpg","","","","","Memory","false","null","","","",""
"","null","html-keyboard-response","284","2.0.0","410904","p86x33mjzdl","gazelle","null","<div style=""font-size:60px; color: black;"">+</div>","","","","","","","","","","",""
"","null","image-keyboard-response","285","2.0.0","412907","p86x33mjzdl","gazelle","null","stimuli\STATE\USED\Scoffeemaker2.JPG","","","","","Memory","false","null","","","",""
"","null","html-keyboard-response","286","2.0.0","413409","p86x33mjzdl","gazelle","null","<div style=""font-size:60px; color: black;"">+</div>","","","","","","","","","","",""
"","null","image-keyboard-response","287","2.0.0","415413","p86x33mjzdl","gazelle","null","stimuli\EXEMPLAR\USED\Ehoe1.jpg","","","","","Memory","false","null","","","",""
"","null","html-keyboard-response","288","2.0.0","415915","p86x33mjzdl","gazelle","null","<div style=""font-size:60px; color: black;"">+</div>","","","","","","","","","","",""
"","null","image-keyboard-response","289","2.0.0","417919","p86x33mjzdl","gazelle","null","stimuli\STATE\USED\Seggplant2.jpg","","","","","Memory","false","null","","","",""
"","null","html-keyboard-response","290","2.0.0","418422","p86x33mjzdl","gazelle","null","<div style=""font-size:60px; color: black;"">+</div>","","","","","","","","","","",""
"","706","image-keyboard-response","291","2.0.0","420425","p86x33mjzdl","gazelle"," ","stimuli\EXEMPLAR\USED\Efolder1.jpg","","","","","Memory","true","true","","","",""
"","null","html-keyboard-response","292","2.0.0","420928","p86x33mjzdl","gazelle","null","<div style=""font-size:60px; color: green;"">+</div>","","","","","","","","","","",""
"","null","image-keyboard-response","293","2.0.0","422931","p86x33mjzdl","gazelle","null","stimuli\EXEMPLAR\USED\Eframe2.jpg","","","","","Memory","false","null","","","",""
"","null","html-keyboard-response","294","2.0.0","423434","p86x33mjzdl","gazelle","null","<div style=""font-size:60px; color: black;"">+</div>","","","","","","","","","","",""
"","null","image-keyboard-response","295","2.0.0","425437","p86x33mjzdl","gazelle","null","stimuli\EXEMPLAR\USED\Etrowel1.jpg","","","","","Memory","false","null","","","",""
"","null","html-keyboard-response","296","2.0.0","425940","p86x33mjzdl","gazelle","null","<div style=""font-size:60px; color: black;"">+</div>","","","","","","","","","","",""
"","null","image-keyboard-response","297","2.0.0","427944","p86x33mjzdl","gazelle","null","stimuli\EXEMPLAR\USED\Eremote1.jpg","","","","","Memory","false","null","","","",""
"","null","html-keyboard-response","298","2.0.0","428447","p86x33mjzdl","gazelle","null","<div style=""font-size:60px; color: black;"">+</div>","","","","","","","","","","",""
"","null","image-keyboard-response","299","2.0.0","430449","p86x33mjzdl","gazelle","null","stimuli\STATE\USED\Scateringtray2.jpg","","","","","Memory","false","null","","","",""
"","null","html-keyboard-response","300","2.0.0","430951","p86x33mjzdl","gazelle","null","<div style=""font-size:60px; color: black;"">+</div>","","","","","","","","","","",""
"","null","image-keyboard-response","301","2.0.0","432954","p86x33mjzdl","gazelle","null","stimuli\EXEMPLAR\USED\Econe2.jpg","","","","","Memory","false","null","","","",""
"","null","html-keyboard-response","302","2.0.0","433456","p86x33mjzdl","gazelle","null","<div style=""font-size:60px; color: black;"">+</div>","","","","","","","","","","",""
"","null","image-keyboard-response","303","2.0.0","435459","p86x33mjzdl","gazelle","null","stimuli\STATE\USED\Sbox2.jpg","","","","","Memory","false","null","","","",""
"","null","html-keyboard-response","304","2.0.0","435962","p86x33mjzdl","gazelle","null","<div style=""font-size:60px; color: black;"">+</div>","","","","","","","","","","",""
"","null","image-keyboard-response","305","2.0.0","437965","p86x33mjzdl","gazelle","null","stimuli\STATE\USED\Saccordionsmall2.JPG","","","","","Memory","false","null","","","",""
"","null","html-keyboard-response","306","2.0.0","438468","p86x33mjzdl","gazelle","null","<div style=""font-size:60px; color: black;"">+</div>","","","","","","","","","","",""
"","null","image-keyboard-response","307","2.0.0","440472","p86x33mjzdl","gazelle","null","stimuli\EXEMPLAR\USED\Eremover1.jpg","","","","","Memory","false","null","","","",""
"","null","html-keyboard-response","308","2.0.0","440974","p86x33mjzdl","gazelle","null","<div style=""font-size:60px; color: black;"">+</div>","","","","","","","","","","",""
"","null","image-keyboard-response","309","2.0.0","442978","p86x33mjzdl","gazelle","null","stimuli\EXEMPLAR\USED\Ekayak1.jpg","","","","","Memory","false","null","","","",""
"","null","html-keyboard-response","310","2.0.0","443480","p86x33mjzdl","gazelle","null","<div style=""font-size:60px; color: black;"">+</div>","","","","","","","","","","",""
"","null","image-keyboard-response","311","2.0.0","445484","p86x33mjzdl","gazelle","null","stimuli\EXEMPLAR\USED\Efishbowl1.jpg","","","","","Memory","false","null","","","",""
"","null","html-keyboard-response","312","2.0.0","445987","p86x33mjzdl","gazelle","null","<div style=""font-size:60px; color: black;"">+</div>","","","","","","","","","","",""
"","1776","html-button-response","313","2.0.0","447765","p86x33mjzdl","gazelle","0","Are you still there?","","","","","Attention Check","","","","","",""
"","null","image-keyboard-response","314","2.0.0","449769","p86x33mjzdl","gazelle","null","stimuli\STATE\USED\Sgiftbag1.jpg","","","","","Memory","false","null","","","",""
"","null","html-keyboard-response","315","2.0.0","450271","p86x33mjzdl","gazelle","null","<div style=""font-size:60px; color: black;"">+</div>","","","","","","","","","","",""
"","629","image-keyboard-response","316","2.0.0","452274","p86x33mjzdl","gazelle"," ","stimuli\EXEMPLAR\USED\Eremover1.jpg","","","","","Memory","true","true","","","",""
"","null","html-keyboard-response","317","2.0.0","452778","p86x33mjzdl","gazelle","null","<div style=""font-size:60px; color: green;"">+</div>","","","","","","","","","","",""
"","null","image-keyboard-response","318","2.0.0","454781","p86x33mjzdl","gazelle","null","stimuli\EXEMPLAR\USED\Ehotairballoon2.jpg","","","","","Memory","false","null","","","",""
"","null","html-keyboard-response","319","2.0.0","455284","p86x33mjzdl","gazelle","null","<div style=""font-size:60px; color: black;"">+</div>","","","","","","","","","","",""
"","null","image-keyboard-response","320","2.0.0","457288","p86x33mjzdl","gazelle","null","stimuli\EXEMPLAR\USED\Eswimsuit2.jpg","","","","","Memory","false","null","","","",""
"","null","html-keyboard-response","321","2.0.0","457791","p86x33mjzdl","gazelle","null","<div style=""font-size:60px; color: black;"">+</div>","","","","","","","","","","",""
"","null","image-keyboard-response","322","2.0.0","459794","p86x33mjzdl","gazelle","null","stimuli\STATE\USED\Srhino1.jpg","","","","","Memory","false","null","","","",""
"","null","html-keyboard-response","323","2.0.0","460296","p86x33mjzdl","gazelle","null","<div style=""font-size:60px; color: black;"">+</div>","","","","","","","","","","",""
"","null","image-keyboard-response","324","2.0.0","462299","p86x33mjzdl","gazelle","null","stimuli\STATE\USED\Sbarnmailbox1.jpg","","","","","Memory","false","null","","","",""
"","null","html-keyboard-response","325","2.0.0","462802","p86x33mjzdl","gazelle","null","<div style=""font-size:60px; color: black;"">+</div>","","","","","","","","","","",""
"","null","image-keyboard-response","326","2.0.0","464806","p86x33mjzdl","gazelle","null","stimuli\STATE\USED\Sgiftbox2.jpg","","","","","Memory","false","null","","","",""
"","null","html-keyboard-response","327","2.0.0","465309","p86x33mjzdl","gazelle","null","<div style=""font-size:60px; color: black;"">+</div>","","","","","","","","","","",""
"","757","image-keyboard-response","328","2.0.0","467313","p86x33mjzdl","gazelle"," ","stimuli\EXEMPLAR\USED\Eswimsuit2.jpg","","","","","Memory","true","true","","","",""
"","null","html-keyboard-response","329","2.0.0","467815","p86x33mjzdl","gazelle","null","<div style=""font-size:60px; color: green;"">+</div>","","","","","","","","","","",""
"","null","image-keyboard-response","330","2.0.0","469819","p86x33mjzdl","gazelle","null","stimuli\EXEMPLAR\USED\Esunglasses2.jpg","","","","","Memory","false","null","","","",""
"","null","html-keyboard-response","331","2.0.0","470322","p86x33mjzdl","gazelle","null","<div style=""font-size:60px; color: black;"">+</div>","","","","","","","","","","",""
"","null","image-keyboard-response","332","2.0.0","472326","p86x33mjzdl","gazelle","null","stimuli\EXEMPLAR\USED\Ebracelet1.jpg","","","","","Memory","false","null","","","",""
"","null","html-keyboard-response","333","2.0.0","472829","p86x33mjzdl","gazelle","null","<div style=""font-size:60px; color: black;"">+</div>","","","","","","","","","","",""
"","null","image-keyboard-response","334","2.0.0","474833","p86x33mjzdl","gazelle","null","stimuli\STATE\USED\Shandsign2.JPG","","","","","Memory","false","null","","","",""
"","null","html-keyboard-response","335","2.0.0","475335","p86x33mjzdl","gazelle","null","<div style=""font-size:60px; color: black;"">+</div>","","","","","","","","","","",""
"","null","image-keyboard-response","336","2.0.0","477339","p86x33mjzdl","gazelle","null","stimuli\STATE\USED\Ssweater1.jpg","","","","","Memory","false","null","","","",""
"","null","html-keyboard-response","337","2.0.0","477842","p86x33mjzdl","gazelle","null","<div style=""font-size:60px; color: black;"">+</div>","","","","","","","","","","",""
"","null","image-keyboard-response","338","2.0.0","479846","p86x33mjzdl","gazelle","null","stimuli\STATE\USED\Sbureau2.JPG","","","","","Memory","false","null","","","",""
"","null","html-keyboard-response","339","2.0.0","480349","p86x33mjzdl","gazelle","null","<div style=""font-size:60px; color: black;"">+</div>","","","","","","","","","","",""
"","870","image-keyboard-response","340","2.0.0","482353","p86x33mjzdl","gazelle"," ","stimuli\EXEMPLAR\USED\Ebracelet1.jpg","","","","","Memory","true","true","","","",""
"","null","html-keyboard-response","341","2.0.0","482856","p86x33mjzdl","gazelle","null","<div style=""font-size:60px; color: green;"">+</div>","","","","","","","","","","",""
"","null","image-keyboard-response","342","2.0.0","484859","p86x33mjzdl","gazelle","null","stimuli\STATE\USED\Sphone2.JPG","","","","","Memory","false","null","","","",""
"","null","html-keyboard-response","343","2.0.0","485362","p86x33mjzdl","gazelle","null","<div style=""font-size:60px; color: black;"">+</div>","","","","","","","","","","",""
"","null","image-keyboard-response","344","2.0.0","487366","p86x33mjzdl","gazelle","null","stimuli\STATE\USED\Sschoolbag2.JPG","","","","","Memory","false","null","","","",""
"","null","html-keyboard-response","345","2.0.0","487868","p86x33mjzdl","gazelle","null","<div style=""font-size:60px; color: black;"">+</div>","","","","","","","","","","",""
"","null","image-keyboard-response","346","2.0.0","489871","p86x33mjzdl","gazelle","null","stimuli\STATE\USED\Shandshake2.JPG","","","","","Memory","false","null","","","",""
"","null","html-keyboard-response","347","2.0.0","490374","p86x33mjzdl","gazelle","null","<div style=""font-size:60px; color: black;"">+</div>","","","","","","","","","","",""
"","8728","html-keyboard-response","348","2.0.0","499103","p86x33mjzdl","gazelle"," ","
          <p>In the next part of this experiment, you will see 2 images. Please select the image that you recall from the image stream.</p>
          <p>You will also rate your confidence for each image you recall.</p>
          <p>Press any key to start.</p>
        ","","","","","","","","","","",""
"","5861","html-button-response","349","2.0.0","504966","p86x33mjzdl","gazelle","0","Which of these items did you see before?","","","","","Test","","true","[""stimuli\\EXEMPLAR\\USED\\Ebicycle1.jpg"",""stimuli\\EXEMPLAR\\USED\\Ebicycle2.jpg""]","stimuli\EXEMPLAR\USED\Ebicycle1.jpg","stimuli\EXEMPLAR\USED\Ebicycle1.jpg",""
"","4077","image-slider-response","350","2.0.0","509047","p86x33mjzdl","gazelle","2","stimuli\EXEMPLAR\USED\Ebicycle1.jpg","","","","","","","","","","","3"
"","4980","html-button-response","351","2.0.0","514029","p86x33mjzdl","gazelle","1","Which of these items did you see before?","","","","","Test","","true","[""stimuli\\STATE\\USED\\Sgiftbag2.jpg"",""stimuli\\STATE\\USED\\Sgiftbag1.jpg""]","stimuli\STATE\USED\Sgiftbag1.jpg","stimuli\STATE\USED\Sgiftbag1.jpg",""
"","1830","image-slider-response","352","2.0.0","515862","p86x33mjzdl","gazelle","2","stimuli\STATE\USED\Sgiftbag1.jpg","","","","","","","","","","","3"
"","1896","html-button-response","353","2.0.0","517761","p86x33mjzdl","gazelle","1","Which of these items did you see before?","","","","","Test","","true","[""stimuli\\EXEMPLAR\\USED\\Emuffin1.jpg"",""stimuli\\EXEMPLAR\\USED\\Emuffin2.jpg""]","stimuli\EXEMPLAR\USED\Emuffin2.jpg","stimuli\EXEMPLAR\USED\Emuffin2.jpg",""
"","2282","image-slider-response","354","2.0.0","520046","p86x33mjzdl","gazelle","5","stimuli\EXEMPLAR\USED\Emuffin2.jpg","","","","","","","","","","","3"
"","3996","html-button-response","355","2.0.0","524043","p86x33mjzdl","gazelle","0","Which of these items did you see before?","","","","","Test","","true","[""stimuli\\STATE\\USED\\Scoffeemaker2.JPG"",""stimuli\\STATE\\USED\\Scoffeemaker1.JPG""]","stimuli\STATE\USED\Scoffeemaker2.JPG","stimuli\STATE\USED\Scoffeemaker2.JPG",""
"","2885","image-slider-response","356","2.0.0","526930","p86x33mjzdl","gazelle","5","stimuli\STATE\USED\Scoffeemaker2.JPG","","","","","","","","","","","3"
"","4198","html-button-response","357","2.0.0","531129","p86x33mjzdl","gazelle","0","Which of these items did you see before?","","","","","Test","","true","[""stimuli\\STATE\\USED\\Sseats1.jpg"",""stimuli\\STATE\\USED\\Sseats2.jpg""]","stimuli\STATE\USED\Sseats1.jpg","stimuli\STATE\USED\Sseats1.jpg",""
"","3081","image-slider-response","358","2.0.0","534213","p86x33mjzdl","gazelle","2","stimuli\STATE\USED\Sseats1.jpg","","","","","","","","","","","3"
"","2014","html-button-response","359","2.0.0","536229","p86x33mjzdl","gazelle","0","Which of these items did you see before?","","","","","Test","","false","[""stimuli\\STATE\\USED\\Slockbox1.jpg"",""stimuli\\STATE\\USED\\Slockbox2.jpg""]","stimuli\STATE\USED\Slockbox2.jpg","stimuli\STATE\USED\Slockbox1.jpg",""
"","2113","image-slider-response","360","2.0.0","538345","p86x33mjzdl","gazelle","5","stimuli\STATE\USED\Slockbox1.jpg","","","","","","","","","","","3"
"","2849","html-button-response","361","2.0.0","541196","p86x33mjzdl","gazelle","0","Which of these items did you see before?","","","","","Test","","true","[""stimuli\\EXEMPLAR\\USED\\Enozzle2.jpg"",""stimuli\\EXEMPLAR\\USED\\Enozzle1.jpg""]","stimuli\EXEMPLAR\USED\Enozzle2.jpg","stimuli\EXEMPLAR\USED\Enozzle2.jpg",""
"","2813","image-slider-response","362","2.0.0","544012","p86x33mjzdl","gazelle","4","stimuli\EXEMPLAR\USED\Enozzle2.jpg","","","","","","","","","","","3"
"","3983","html-button-response","363","2.0.0","547997","p86x33mjzdl","gazelle","1","Which of these items did you see before?","","","","","Test","","true","[""stimuli\\EXEMPLAR\\USED\\Eelectricbass1.jpg"",""stimuli\\EXEMPLAR\\USED\\Eelectricbass2.jpg""]","stimuli\EXEMPLAR\USED\Eelectricbass2.jpg","stimuli\EXEMPLAR\USED\Eelectricbass2.jpg",""
"","2230","image-slider-response","364","2.0.0","550229","p86x33mjzdl","gazelle","2","stimuli\EXEMPLAR\USED\Eelectricbass2.jpg","","","","","","","","","","","3"
"","1915","html-button-response","365","2.0.0","552146","p86x33mjzdl","gazelle","1","Which of these items did you see before?","","","","","Test","","true","[""stimuli\\STATE\\USED\\Sapple2.jpg"",""stimuli\\STATE\\USED\\Sapple1.jpg""]","stimuli\STATE\USED\Sapple1.jpg","stimuli\STATE\USED\Sapple1.jpg",""
"","2445","image-slider-response","366","2.0.0","554594","p86x33mjzdl","gazelle","5","stimuli\STATE\USED\Sapple1.jpg","","","","","","","","","","","3"
"","1399","html-button-response","367","2.0.0","555995","p86x33mjzdl","gazelle","0","Which of these items did you see before?","","","","","Test","","true","[""stimuli\\STATE\\USED\\Sscanner2.JPG"",""stimuli\\STATE\\USED\\Sscanner1.JPG""]","stimuli\STATE\USED\Sscanner2.JPG","stimuli\STATE\USED\Sscanner2.JPG",""
"","1964","image-slider-response","368","2.0.0","557962","p86x33mjzdl","gazelle","4","stimuli\STATE\USED\Sscanner2.JPG","","","","","","","","","","","3"
"","1834","html-button-response","369","2.0.0","559798","p86x33mjzdl","gazelle","0","Which of these items did you see before?","","","","","Test","","true","[""stimuli\\EXEMPLAR\\USED\\Eholepunch1.jpg"",""stimuli\\EXEMPLAR\\USED\\Eholepunch2.jpg""]","stimuli\EXEMPLAR\USED\Eholepunch1.jpg","stimuli\EXEMPLAR\USED\Eholepunch1.jpg",""
"","2246","image-slider-response","370","2.0.0","562046","p86x33mjzdl","gazelle","5","stimuli\EXEMPLAR\USED\Eholepunch1.jpg","","","","","","","","","","","3"
"","2114","html-button-response","371","2.0.0","564162","p86x33mjzdl","gazelle","1","Which of these items did you see before?","","","","","Test","","false","[""stimuli\\EXEMPLAR\\USED\\Egame2.jpg"",""stimuli\\EXEMPLAR\\USED\\Egame1.jpg""]","stimuli\EXEMPLAR\USED\Egame2.jpg","stimuli\EXEMPLAR\USED\Egame1.jpg",""
"","2048","image-slider-response","372","2.0.0","566213","p86x33mjzdl","gazelle","2","stimuli\EXEMPLAR\USED\Egame1.jpg","","","","","","","","","","","3"
"","1647","html-button-response","373","2.0.0","567862","p86x33mjzdl","gazelle","0","Which of these items did you see before?","","","","","Test","","true","[""stimuli\\STATE\\USED\\Sclipboard2.jpg"",""stimuli\\STATE\\USED\\Sclipboard1.jpg""]","stimuli\STATE\USED\Sclipboard2.jpg","stimuli\STATE\USED\Sclipboard2.jpg",""
"","2712","image-slider-response","374","2.0.0","570577","p86x33mjzdl","gazelle","5","stimuli\STATE\USED\Sclipboard2.jpg","","","","","","","","","","","3"
"","1234","html-button-response","375","2.0.0","571812","p86x33mjzdl","gazelle","1","Which of these items did you see before?","","","","","Test","","true","[""stimuli\\STATE\\USED\\Sbooks1.JPG"",""stimuli\\STATE\\USED\\Sbooks2.JPG""]","stimuli\STATE\USED\Sbooks2.JPG","stimuli\STATE\USED\Sbooks2.JPG",""
"","2097","image-slider-response","376","2.0.0","573912","p86x33mjzdl","gazelle","5","stimuli\STATE\USED\Sbooks2.JPG","","","","","","","","","","","3"
"","1565","html-button-response","377","2.0.0","575479","p86x33mjzdl","gazelle","0","Which of these items did you see before?","","","","","Test","","false","[""stimuli\\EXEMPLAR\\USED\\Etractor1.jpg"",""stimuli\\EXEMPLAR\\USED\\Etractor2.jpg""]","stimuli\EXEMPLAR\USED\Etractor2.jpg","stimuli\EXEMPLAR\USED\Etractor1.jpg",""
"","1980","image-slider-response","378","2.0.0","577462","p86x33mjzdl","gazelle","4","stimuli\EXEMPLAR\USED\Etractor1.jpg","","","","","","","","","","","3"
"","914","html-button-response","379","2.0.0","578378","p86x33mjzdl","gazelle","1","Which of these items did you see before?","","","","","Test","","true","[""stimuli\\EXEMPLAR\\USED\\Eswimsuit1.jpg"",""stimuli\\EXEMPLAR\\USED\\Eswimsuit2.jpg""]","stimuli\EXEMPLAR\USED\Eswimsuit2.jpg","stimuli\EXEMPLAR\USED\Eswimsuit2.jpg",""
"","1915","image-slider-response","380","2.0.0","580295","p86x33mjzdl","gazelle","5","stimuli\EXEMPLAR\USED\Eswimsuit2.jpg","","","","","","","","","","","3"
"","3866","html-button-response","381","2.0.0","584163","p86x33mjzdl","gazelle","1","Which of these items did you see before?","","","","","Test","","false","[""stimuli\\STATE\\USED\\Sphone2.JPG"",""stimuli\\STATE\\USED\\Sphone1.JPG""]","stimuli\STATE\USED\Sphone2.JPG","stimuli\STATE\USED\Sphone1.JPG",""
"","8430","image-slider-response","382","2.0.0","592596","p86x33mjzdl","gazelle","4","stimuli\STATE\USED\Sphone1.JPG","","","","","","","","","","","3"
"","2181","html-button-response","383","2.0.0","594778","p86x33mjzdl","gazelle","0","Which of these items did you see before?","","","","","Test","","true","[""stimuli\\EXEMPLAR\\USED\\Ehorn1.jpg"",""stimuli\\EXEMPLAR\\USED\\Ehorn2.jpg""]","stimuli\EXEMPLAR\USED\Ehorn1.jpg","stimuli\EXEMPLAR\USED\Ehorn1.jpg",""
"","2482","image-slider-response","384","2.0.0","597262","p86x33mjzdl","gazelle","2","stimuli\EXEMPLAR\USED\Ehorn1.jpg","","","","","","","","","","","3"
"","3081","html-button-response","385","2.0.0","600345","p86x33mjzdl","gazelle","1","Which of these items did you see before?","","","","","Test","","true","[""stimuli\\EXEMPLAR\\USED\\Earch2.jpg"",""stimuli\\EXEMPLAR\\USED\\Earch1.jpg""]","stimuli\EXEMPLAR\USED\Earch1.jpg","stimuli\EXEMPLAR\USED\Earch1.jpg",""
"","3048","image-slider-response","386","2.0.0","603396","p86x33mjzdl","gazelle","2","stimuli\EXEMPLAR\USED\Earch1.jpg","","","","","","","","","","","3"
"","1364","html-button-response","387","2.0.0","604762","p86x33mjzdl","gazelle","0","Which of these items did you see before?","","","","","Test","","true","[""stimuli\\STATE\\USED\\Sseatbelt2.jpg"",""stimuli\\STATE\\USED\\Sseatbelt1.jpg""]","stimuli\STATE\USED\Sseatbelt2.jpg","stimuli\STATE\USED\Sseatbelt2.jpg",""
"","1879","image-slider-response","388","2.0.0","606643","p86x33mjzdl","gazelle","4","stimuli\STATE\USED\Sseatbelt2.jpg","","","","","","","","","","","3"
"","1168","html-button-response","389","2.0.0","607812","p86x33mjzdl","gazelle","0","Which of these items did you see before?","","","","","Test","","true","[""stimuli\\EXEMPLAR\\USED\\Econe2.jpg"",""stimuli\\EXEMPLAR\\USED\\Econe1.jpg""]","stimuli\EXEMPLAR\USED\Econe2.jpg","stimuli\EXEMPLAR\USED\Econe2.jpg",""
"","1813","image-slider-response","390","2.0.0","609628","p86x33mjzdl","gazelle","5","stimuli\EXEMPLAR\USED\Econe2.jpg","","","","","","","","","","","3"
"","833","html-button-response","391","2.0.0","610462","p86x33mjzdl","gazelle","1","Which of these items did you see before?","","","","","Test","","false","[""stimuli\\EXEMPLAR\\USED\\Epliers1.jpg"",""stimuli\\EXEMPLAR\\USED\\Epliers2.jpg""]","stimuli\EXEMPLAR\USED\Epliers1.jpg","stimuli\EXEMPLAR\USED\Epliers2.jpg",""
"","2898","image-slider-response","392","2.0.0","613362","p86x33mjzdl","gazelle","2","stimuli\EXEMPLAR\USED\Epliers2.jpg","","","","","","","","","","","3"
"","1648","html-button-response","393","2.0.0","615012","p86x33mjzdl","gazelle","0","Which of these items did you see before?","","","","","Test","","true","[""stimuli\\STATE\\USED\\Scooker2.jpg"",""stimuli\\STATE\\USED\\Scooker1.jpg""]","stimuli\STATE\USED\Scooker2.jpg","stimuli\STATE\USED\Scooker2.jpg",""
"","3364","image-slider-response","394","2.0.0","618378","p86x33mjzdl","gazelle","5","stimuli\STATE\USED\Scooker2.jpg","","","","","","","","","","","3"
"","2949","html-button-response","395","2.0.0","621329","p86x33mjzdl","gazelle","0","Which of these items did you see before?","","","","","Test","","true","[""stimuli\\STATE\\USED\\Spicnicbasket1.jpg"",""stimuli\\STATE\\USED\\Spicnicbasket2.jpg""]","stimuli\STATE\USED\Spicnicbasket1.jpg","stimuli\STATE\USED\Spicnicbasket1.jpg",""
"","1848","image-slider-response","396","2.0.0","623179","p86x33mjzdl","gazelle","2","stimuli\STATE\USED\Spicnicbasket1.jpg","","","","","","","","","","","3"
"","2464","html-button-response","397","2.0.0","625645","p86x33mjzdl","gazelle","1","Which of these items did you see before?","","","","","Test","","true","[""stimuli\\EXEMPLAR\\USED\\Estapler2.jpg"",""stimuli\\EXEMPLAR\\USED\\Estapler1.jpg""]","stimuli\EXEMPLAR\USED\Estapler1.jpg","stimuli\EXEMPLAR\USED\Estapler1.jpg",""
"","2597","image-slider-response","398","2.0.0","628245","p86x33mjzdl","gazelle","4","stimuli\EXEMPLAR\USED\Estapler1.jpg","","","","","","","","","","","3"
"","1800","html-button-response","399","2.0.0","630046","p86x33mjzdl","gazelle","0","Which of these items did you see before?","","","","","Test","","true","[""stimuli\\EXEMPLAR\\USED\\Eremote1.jpg"",""stimuli\\EXEMPLAR\\USED\\Eremote2.jpg""]","stimuli\EXEMPLAR\USED\Eremote1.jpg","stimuli\EXEMPLAR\USED\Eremote1.jpg",""
"","2113","image-slider-response","400","2.0.0","632161","p86x33mjzdl","gazelle","1","stimuli\EXEMPLAR\USED\Eremote1.jpg","","","","","","","","","","","3"
"","932","html-button-response","401","2.0.0","633095","p86x33mjzdl","gazelle","1","Which of these items did you see before?","","","","","Test","","true","[""stimuli\\EXEMPLAR\\USED\\Ebracelet2.jpg"",""stimuli\\EXEMPLAR\\USED\\Ebracelet1.jpg""]","stimuli\EXEMPLAR\USED\Ebracelet1.jpg","stimuli\EXEMPLAR\USED\Ebracelet1.jpg",""
"","2047","image-slider-response","402","2.0.0","635144","p86x33mjzdl","gazelle","5","stimuli\EXEMPLAR\USED\Ebracelet1.jpg","","","","","","","","","","","3"
"","1415","html-button-response","403","2.0.0","636561","p86x33mjzdl","gazelle","0","Which of these items did you see before?","","","","","Test","","true","[""stimuli\\STATE\\USED\\Shandshake2.JPG"",""stimuli\\STATE\\USED\\Shandshake1.JPG""]","stimuli\STATE\USED\Shandshake2.JPG","stimuli\STATE\USED\Shandshake2.JPG",""
"","3131","image-slider-response","404","2.0.0","639695","p86x33mjzdl","gazelle","5","stimuli\STATE\USED\Shandshake2.JPG","","","","","","","","","","","3"
"","1165","html-button-response","405","2.0.0","640862","p86x33mjzdl","gazelle","0","Which of these items did you see before?","","","","","Test","","true","[""stimuli\\EXEMPLAR\\USED\\Etrowel1.jpg"",""stimuli\\EXEMPLAR\\USED\\Etrowel2.jpg""]","stimuli\EXEMPLAR\USED\Etrowel1.jpg","stimuli\EXEMPLAR\USED\Etrowel1.jpg",""
"","2013","image-slider-response","406","2.0.0","642878","p86x33mjzdl","gazelle","5","stimuli\EXEMPLAR\USED\Etrowel1.jpg","","","","","","","","","","","3"
"","2850","html-button-response","407","2.0.0","645730","p86x33mjzdl","gazelle","0","Which of these items did you see before?","","","","","Test","","true","[""stimuli\\EXEMPLAR\\USED\\Echocolatebar2.jpg"",""stimuli\\EXEMPLAR\\USED\\Echocolatebar1.jpg""]","stimuli\EXEMPLAR\USED\Echocolatebar2.jpg","stimuli\EXEMPLAR\USED\Echocolatebar2.jpg",""
"","1979","image-slider-response","408","2.0.0","647712","p86x33mjzdl","gazelle","2","stimuli\EXEMPLAR\USED\Echocolatebar2.jpg","","","","","","","","","","","3"
"","915","html-button-response","409","2.0.0","648629","p86x33mjzdl","gazelle","1","Which of these items did you see before?","","","","","Test","","true","[""stimuli\\EXEMPLAR\\USED\\Estarfish2.jpg"",""stimuli\\EXEMPLAR\\USED\\Estarfish1.jpg""]","stimuli\EXEMPLAR\USED\Estarfish1.jpg","stimuli\EXEMPLAR\USED\Estarfish1.jpg",""
"","2080","image-slider-response","410","2.0.0","650712","p86x33mjzdl","gazelle","5","stimuli\EXEMPLAR\USED\Estarfish1.jpg","","","","","","","","","","","3"
"","1698","html-button-response","411","2.0.0","652411","p86x33mjzdl","gazelle","0","Which of these items did you see before?","","","","","Test","","true","[""stimuli\\EXEMPLAR\\USED\\Escroll2.jpg"",""stimuli\\EXEMPLAR\\USED\\Escroll1.jpg""]","stimuli\EXEMPLAR\USED\Escroll2.jpg","stimuli\EXEMPLAR\USED\Escroll2.jpg",""
"","2664","image-slider-response","412","2.0.0","655078","p86x33mjzdl","gazelle","2","stimuli\EXEMPLAR\USED\Escroll2.jpg","","","","","","","","","","","3"
"","4631","html-button-response","413","2.0.0","659711","p86x33mjzdl","gazelle","0","Which of these items did you see before?","","","","","Test","","false","[""stimuli\\EXEMPLAR\\USED\\Emoney1.jpg"",""stimuli\\EXEMPLAR\\USED\\Emoney2.jpg""]","stimuli\EXEMPLAR\USED\Emoney2.jpg","stimuli\EXEMPLAR\USED\Emoney1.jpg",""
"","2031","image-slider-response","414","2.0.0","661744","p86x33mjzdl","gazelle","2","stimuli\EXEMPLAR\USED\Emoney1.jpg","","","","","","","","","","","3"
"","1313","html-button-response","415","2.0.0","663059","p86x33mjzdl","gazelle","0","Which of these items did you see before?","","","","","Test","","true","[""stimuli\\STATE\\USED\\Sbook2.JPG"",""stimuli\\STATE\\USED\\Sbook1.JPG""]","stimuli\STATE\USED\Sbook2.JPG","stimuli\STATE\USED\Sbook2.JPG",""
"","2354","image-slider-response","416","2.0.0","665415","p86x33mjzdl","gazelle","4","stimuli\STATE\USED\Sbook2.JPG","","","","","","","","","","","3"
"","1894","html-button-response","417","2.0.0","667311","p86x33mjzdl","gazelle","1","Which of these items did you see before?","","","","","Test","","false","[""stimuli\\EXEMPLAR\\USED\\Ewheelchair2.jpg"",""stimuli\\EXEMPLAR\\USED\\Ewheelchair1.jpg""]","stimuli\EXEMPLAR\USED\Ewheelchair2.jpg","stimuli\EXEMPLAR\USED\Ewheelchair1.jpg",""
"","1932","image-slider-response","418","2.0.0","669245","p86x33mjzdl","gazelle","4","stimuli\EXEMPLAR\USED\Ewheelchair1.jpg","","","","","","","","","","","3"
"","2048","html-button-response","419","2.0.0","671294","p86x33mjzdl","gazelle","0","Which of these items did you see before?","","","","","Test","","false","[""stimuli\\STATE\\USED\\Saccordionsmall1.JPG"",""stimuli\\STATE\\USED\\Saccordionsmall2.JPG""]","stimuli\STATE\USED\Saccordionsmall2.JPG","stimuli\STATE\USED\Saccordionsmall1.JPG",""
"","2647","image-slider-response","420","2.0.0","673944","p86x33mjzdl","gazelle","2","stimuli\STATE\USED\Saccordionsmall1.JPG","","","","","","","","","","","3"
"","4150","html-button-response","421","2.0.0","678096","p86x33mjzdl","gazelle","1","Which of these items did you see before?","","","","","Test","","true","[""stimuli\\EXEMPLAR\\USED\\Erazor1.jpg"",""stimuli\\EXEMPLAR\\USED\\Erazor2.jpg""]","stimuli\EXEMPLAR\USED\Erazor2.jpg","stimuli\EXEMPLAR\USED\Erazor2.jpg",""
"","1880","image-slider-response","422","2.0.0","679978","p86x33mjzdl","gazelle","2","stimuli\EXEMPLAR\USED\Erazor2.jpg","","","","","","","","","","","3"
"","2731","html-button-response","423","2.0.0","682710","p86x33mjzdl","gazelle","1","Which of these items did you see before?","","","","","Test","","true","[""stimuli\\STATE\\USED\\Sbreadslice1.jpg"",""stimuli\\STATE\\USED\\Sbreadslice2.jpg""]","stimuli\STATE\USED\Sbreadslice2.jpg","stimuli\STATE\USED\Sbreadslice2.jpg",""
"","3448","image-slider-response","424","2.0.0","686161","p86x33mjzdl","gazelle","2","stimuli\STATE\USED\Sbreadslice2.jpg","","","","","","","","","","","3"
"","1266","html-button-response","425","2.0.0","687428","p86x33mjzdl","gazelle","1","Which of these items did you see before?","","","","","Test","","true","[""stimuli\\EXEMPLAR\\USED\\Emicroscope2.jpg"",""stimuli\\EXEMPLAR\\USED\\Emicroscope1.jpg""]","stimuli\EXEMPLAR\USED\Emicroscope1.jpg","stimuli\EXEMPLAR\USED\Emicroscope1.jpg",""
"","1697","image-slider-response","426","2.0.0","689127","p86x33mjzdl","gazelle","4","stimuli\EXEMPLAR\USED\Emicroscope1.jpg","","","","","","","","","","","3"
"","1149","html-button-response","427","2.0.0","690278","p86x33mjzdl","gazelle","1","Which of these items did you see before?","","","","","Test","","true","[""stimuli\\STATE\\USED\\Sredcabbage2.jpg"",""stimuli\\STATE\\USED\\Sredcabbage1.jpg""]","stimuli\STATE\USED\Sredcabbage1.jpg","stimuli\STATE\USED\Sredcabbage1.jpg",""
"","1781","image-slider-response","428","2.0.0","692060","p86x33mjzdl","gazelle","4","stimuli\STATE\USED\Sredcabbage1.jpg","","","","","","","","","","","3"
"","3615","html-button-response","429","2.0.0","695678","p86x33mjzdl","gazelle","0","Which of these items did you see before?","","","","","Test","","true","[""stimuli\\EXEMPLAR\\USED\\Etoyplane2.jpg"",""stimuli\\EXEMPLAR\\USED\\Etoyplane1.jpg""]","stimuli\EXEMPLAR\USED\Etoyplane2.jpg","stimuli\EXEMPLAR\USED\Etoyplane2.jpg",""
"","3847","image-slider-response","430","2.0.0","699527","p86x33mjzdl","gazelle","2","stimuli\EXEMPLAR\USED\Etoyplane2.jpg","","","","","","","","","","","3"
"","2149","html-button-response","431","2.0.0","701678","p86x33mjzdl","gazelle","1","Which of these items did you see before?","","","","","Test","","true","[""stimuli\\EXEMPLAR\\USED\\Elog2.jpg"",""stimuli\\EXEMPLAR\\USED\\Elog1.jpg""]","stimuli\EXEMPLAR\USED\Elog1.jpg","stimuli\EXEMPLAR\USED\Elog1.jpg",""
"","4311","image-slider-response","432","2.0.0","705992","p86x33mjzdl","gazelle","2","stimuli\EXEMPLAR\USED\Elog1.jpg","","","","","","","","","","","3"
"","1435","html-button-response","433","2.0.0","707428","p86x33mjzdl","gazelle","1","Which of these items did you see before?","","","","","Test","","true","[""stimuli\\EXEMPLAR\\USED\\Eframe1.jpg"",""stimuli\\EXEMPLAR\\USED\\Eframe2.jpg""]","stimuli\EXEMPLAR\USED\Eframe2.jpg","stimuli\EXEMPLAR\USED\Eframe2.jpg",""
"","2596","image-slider-response","434","2.0.0","710027","p86x33mjzdl","gazelle","1","stimuli\EXEMPLAR\USED\Eframe2.jpg","","","","","","","","","","","3"
"","2635","html-button-response","435","2.0.0","712664","p86x33mjzdl","gazelle","1","Which of these items did you see before?","","","","","Test","","false","[""stimuli\\STATE\\USED\\Sbox2.jpg"",""stimuli\\STATE\\USED\\Sbox1.jpg""]","stimuli\STATE\USED\Sbox2.jpg","stimuli\STATE\USED\Sbox1.jpg",""
"","3628","image-slider-response","436","2.0.0","716294","p86x33mjzdl","gazelle","2","stimuli\STATE\USED\Sbox1.jpg","","","","","","","","","","","3"
"","3597","html-button-response","437","2.0.0","719894","p86x33mjzdl","gazelle","1","Which of these items did you see before?","","","","","Test","","false","[""stimuli\\STATE\\USED\\Sgrinder2.jpg"",""stimuli\\STATE\\USED\\Sgrinder1.jpg""]","stimuli\STATE\USED\Sgrinder2.jpg","stimuli\STATE\USED\Sgrinder1.jpg",""
"","2731","image-slider-response","438","2.0.0","722627","p86x33mjzdl","gazelle","4","stimuli\STATE\USED\Sgrinder1.jpg","","","","","","","","","","","3"
"","3482","html-button-response","439","2.0.0","726111","p86x33mjzdl","gazelle","0","Which of these items did you see before?","","","","","Test","","false","[""stimuli\\EXEMPLAR\\USED\\Esuitcase2.jpg"",""stimuli\\EXEMPLAR\\USED\\Esuitcase1.jpg""]","stimuli\EXEMPLAR\USED\Esuitcase1.jpg","stimuli\EXEMPLAR\USED\Esuitcase2.jpg",""
"","1931","image-slider-response","440","2.0.0","728045","p86x33mjzdl","gazelle","2","stimuli\EXEMPLAR\USED\Esuitcase2.jpg","","","","","","","","","","","3"
"","962","html-button-response","441","2.0.0","729009","p86x33mjzdl","gazelle","1","Which of these items did you see before?","","","","","Test","","true","[""stimuli\\EXEMPLAR\\USED\\Ehoe2.jpg"",""stimuli\\EXEMPLAR\\USED\\Ehoe1.jpg""]","stimuli\EXEMPLAR\USED\Ehoe1.jpg","stimuli\EXEMPLAR\USED\Ehoe1.jpg",""
"","1930","image-slider-response","442","2.0.0","730943","p86x33mjzdl","gazelle","4","stimuli\EXEMPLAR\USED\Ehoe1.jpg","","","","","","","","","","","3"
"","2566","html-button-response","443","2.0.0","733511","p86x33mjzdl","gazelle","1","Which of these items did you see before?","","","","","Test","","true","[""stimuli\\EXEMPLAR\\USED\\Ecamera1.jpg"",""stimuli\\EXEMPLAR\\USED\\Ecamera2.jpg""]","stimuli\EXEMPLAR\USED\Ecamera2.jpg","stimuli\EXEMPLAR\USED\Ecamera2.jpg",""
"","2530","image-slider-response","444","2.0.0","736044","p86x33mjzdl","gazelle","2","stimuli\EXEMPLAR\USED\Ecamera2.jpg","","","","","","","","","","","3"
"","1164","html-button-response","445","2.0.0","737210","p86x33mjzdl","gazelle","0","Which of these items did you see before?","","","","","Test","","true","[""stimuli\\STATE\\USED\\Sschoolbag2.JPG"",""stimuli\\STATE\\USED\\Sschoolbag1.JPG""]","stimuli\STATE\USED\Sschoolbag2.JPG","stimuli\STATE\USED\Sschoolbag2.JPG",""
"","2599","image-slider-response","446","2.0.0","739811","p86x33mjzdl","gazelle","4","stimuli\STATE\USED\Sschoolbag2.JPG","","","","","","","","","","","3"
"","1430","html-button-response","447","2.0.0","741244","p86x33mjzdl","gazelle","0","Which of these items did you see before?","","","","","Test","","true","[""stimuli\\EXEMPLAR\\USED\\Eteapot2.JPG"",""stimuli\\EXEMPLAR\\USED\\Eteapot1.JPG""]","stimuli\EXEMPLAR\USED\Eteapot2.JPG","stimuli\EXEMPLAR\USED\Eteapot2.JPG",""
"","2131","image-slider-response","448","2.0.0","743378","p86x33mjzdl","gazelle","2","stimuli\EXEMPLAR\USED\Eteapot2.JPG","","","","","","","","","","","3"
"","31825","survey-text","449","2.0.0","775211","p86x33mjzdl","gazelle","{""experiment_purpose"":""memory on large scale"",""Q1"":""recall if I've seen it"",""technical_issues"":""no""}","","","","","","","","","","","",""
