"success","rt","trial_type","trial_index","plugin_version","time_elapsed","random_id","participant","response","stimulus","timeout","failed_images","failed_audio","failed_video","trial_phase","repeated","correct","choice_images","correct_image","choice","slider_start"
"true","1417","fullscreen","0","2.0.0","2423","p920knkg1w3","trex","","","","","","","","","","","","",""
"","2558","survey-text","1","2.0.0","4987","p920knkg1w3","trex","{""participant_id"":""trex""}","","","","","","","","","","","",""
"","3100","html-keyboard-response","2","2.0.0","8088","p920knkg1w3","trex"," ","<p>Welcome to the Massive Memory Experiment. Press any key to move on. </p>","","","","","","","","","","",""
"","35865","html-keyboard-response","3","2.0.0","43953","p920knkg1w3","trex","j","
      <div style='width:900px;margin: auto;'><p>In the first section you will see a stream of images, with fixation crosses in between each image.</p>
      <p>Each image will remain on screen for 2 seconds. Your job is to detect images that you have seen before within the experiment. Whenever you see an image that you have seen previously <b>at any point in the stream of images</b>, press the spacebar.</p>
      <p>We will let you know if you have correctly or falsely clicked the spacebar on an image by changing the color of the fixation cross.</p>
      <p>If you press the spacebar correctly (the image really did appear earlier), the fixation cross will turn green. If you pressed the spacebar incorrectly, the fixation cross will turn red.</p>
      <p>Please watch carefully to detect the images that show up again!</p>
      <p>Press any key to start.</p></div>
    ","","","","","","","","","","",""
"true","","preload","4","2.0.0","44942","p920knkg1w3","trex","","","false","[]","[]","[]","","","","","","",""
"","null","image-keyboard-response","5","2.0.0","46946","p920knkg1w3","trex","null","stimuli\STATE\USED\Seggplant1.jpg","","","","","Memory","false","null","","","",""
"","null","html-keyboard-response","6","2.0.0","47450","p920knkg1w3","trex","null","<div style=""font-size:60px; color: black;"">+</div>","","","","","","","","","","",""
"","null","image-keyboard-response","7","2.0.0","49454","p920knkg1w3","trex","null","stimuli\STATE\USED\Spiggybank2.jpg","","","","","Memory","false","null","","","",""
"","null","html-keyboard-response","8","2.0.0","49957","p920knkg1w3","trex","null","<div style=""font-size:60px; color: black;"">+</div>","","","","","","","","","","",""
"","null","image-keyboard-response","9","2.0.0","51961","p920knkg1w3","trex","null","stimuli\STATE\USED\Smedicaltape2.jpg","","","","","Memory","false","null","","","",""
"","null","html-keyboard-response","10","2.0.0","52463","p920knkg1w3","trex","null","<div style=""font-size:60px; color: black;"">+</div>","","","","","","","","","","",""
"","null","image-keyboard-response","11","2.0.0","54466","p920knkg1w3","trex","null","stimuli\STATE\USED\Sdishes1.JPG","","","","","Memory","false","null","","","",""
"","null","html-keyboard-response","12","2.0.0","54969","p920knkg1w3","trex","null","<div style=""font-size:60px; color: black;"">+</div>","","","","","","","","","","",""
"","null","image-keyboard-response","13","2.0.0","56973","p920knkg1w3","trex","null","stimuli\STATE\USED\Scateringtray2.jpg","","","","","Memory","false","null","","","",""
"","null","html-keyboard-response","14","2.0.0","57475","p920knkg1w3","trex","null","<div style=""font-size:60px; color: black;"">+</div>","","","","","","","","","","",""
"","null","image-keyboard-response","15","2.0.0","59478","p920knkg1w3","trex","null","stimuli\STATE\USED\Scontainer2.JPG","","","","","Memory","false","null","","","",""
"","null","html-keyboard-response","16","2.0.0","59981","p920knkg1w3","trex","null","<div style=""font-size:60px; color: black;"">+</div>","","","","","","","","","","",""
"","null","image-keyboard-response","17","2.0.0","61985","p920knkg1w3","trex","null","stimuli\EXEMPLAR\USED\Echopsticks2.jpg","","","","","Memory","false","null","","","",""
"","null","html-keyboard-response","18","2.0.0","62488","p920knkg1w3","trex","null","<div style=""font-size:60px; color: black;"">+</div>","","","","","","","","","","",""
"","null","image-keyboard-response","19","2.0.0","64492","p920knkg1w3","trex","null","stimuli\STATE\USED\Sdryer2.jpg","","","","","Memory","false","null","","","",""
"","null","html-keyboard-response","20","2.0.0","64993","p920knkg1w3","trex","null","<div style=""font-size:60px; color: black;"">+</div>","","","","","","","","","","",""
"","null","image-keyboard-response","21","2.0.0","66997","p920knkg1w3","trex","null","stimuli\STATE\USED\Scateringtray2.jpg","","","","","Memory","true","null","","","",""
"","null","html-keyboard-response","22","2.0.0","67499","p920knkg1w3","trex","null","<div style=""font-size:60px; color: black;"">+</div>","","","","","","","","","","",""
"","null","image-keyboard-response","23","2.0.0","69504","p920knkg1w3","trex","null","stimuli\STATE\USED\Sboxwhite1.jpg","","","","","Memory","false","null","","","",""
"","null","html-keyboard-response","24","2.0.0","70006","p920knkg1w3","trex","null","<div style=""font-size:60px; color: black;"">+</div>","","","","","","","","","","",""
"","null","image-keyboard-response","25","2.0.0","72011","p920knkg1w3","trex","null","stimuli\EXEMPLAR\USED\Ewheelchair1.jpg","","","","","Memory","false","null","","","",""
"","null","html-keyboard-response","26","2.0.0","72513","p920knkg1w3","trex","null","<div style=""font-size:60px; color: black;"">+</div>","","","","","","","","","","",""
"","null","image-keyboard-response","27","2.0.0","74516","p920knkg1w3","trex","null","stimuli\STATE\USED\Spumpkinpie2.jpg","","","","","Memory","false","null","","","",""
"","null","html-keyboard-response","28","2.0.0","75019","p920knkg1w3","trex","null","<div style=""font-size:60px; color: black;"">+</div>","","","","","","","","","","",""
"","null","image-keyboard-response","29","2.0.0","77022","p920knkg1w3","trex","null","stimuli\EXEMPLAR\USED\Efolder2.jpg","","","","","Memory","false","null","","","",""
"","null","html-keyboard-response","30","2.0.0","77524","p920knkg1w3","trex","null","<div style=""font-size:60px; color: black;"">+</div>","","","","","","","","","","",""
"","null","image-keyboard-response","31","2.0.0","79528","p920knkg1w3","trex","null","stimuli\STATE\USED\Sboxwhite1.jpg","","","","","Memory","true","null","","","",""
"","null","html-keyboard-response","32","2.0.0","80030","p920knkg1w3","trex","null","<div style=""font-size:60px; color: black;"">+</div>","","","","","","","","","","",""
"","null","image-keyboard-response","33","2.0.0","82033","p920knkg1w3","trex","null","stimuli\EXEMPLAR\USED\Eheadphones2.jpg","","","","","Memory","false","null","","","",""
"","null","html-keyboard-response","34","2.0.0","82536","p920knkg1w3","trex","null","<div style=""font-size:60px; color: black;"">+</div>","","","","","","","","","","",""
"","null","image-keyboard-response","35","2.0.0","84539","p920knkg1w3","trex","null","stimuli\EXEMPLAR\USED\Ehelmet2.jpg","","","","","Memory","false","null","","","",""
"","null","html-keyboard-response","36","2.0.0","85041","p920knkg1w3","trex","null","<div style=""font-size:60px; color: black;"">+</div>","","","","","","","","","","",""
"","null","image-keyboard-response","37","2.0.0","87044","p920knkg1w3","trex","null","stimuli\EXEMPLAR\USED\Etrain1.jpg","","","","","Memory","false","null","","","",""
"","null","html-keyboard-response","38","2.0.0","87547","p920knkg1w3","trex","null","<div style=""font-size:60px; color: black;"">+</div>","","","","","","","","","","",""
"","null","image-keyboard-response","39","2.0.0","89551","p920knkg1w3","trex","null","stimuli\EXEMPLAR\USED\Ecamera2.jpg","","","","","Memory","false","null","","","",""
"","null","html-keyboard-response","40","2.0.0","90054","p920knkg1w3","trex","null","<div style=""font-size:60px; color: black;"">+</div>","","","","","","","","","","",""
"","null","image-keyboard-response","41","2.0.0","92057","p920knkg1w3","trex","null","stimuli\EXEMPLAR\USED\Ehotairballoon2.jpg","","","","","Memory","false","null","","","",""
"","null","html-keyboard-response","42","2.0.0","92560","p920knkg1w3","trex","null","<div style=""font-size:60px; color: black;"">+</div>","","","","","","","","","","",""
"","null","image-keyboard-response","43","2.0.0","94563","p920knkg1w3","trex","null","stimuli\EXEMPLAR\USED\Ehelmet2.jpg","","","","","Memory","true","null","","","",""
"","null","html-keyboard-response","44","2.0.0","95066","p920knkg1w3","trex","null","<div style=""font-size:60px; color: black;"">+</div>","","","","","","","","","","",""
"","null","image-keyboard-response","45","2.0.0","97069","p920knkg1w3","trex","null","stimuli\STATE\USED\Speppers2.jpg","","","","","Memory","false","null","","","",""
"","null","html-keyboard-response","46","2.0.0","97571","p920knkg1w3","trex","null","<div style=""font-size:60px; color: black;"">+</div>","","","","","","","","","","",""
"","null","image-keyboard-response","47","2.0.0","99575","p920knkg1w3","trex","null","stimuli\STATE\USED\Sbreadslice2.jpg","","","","","Memory","false","null","","","",""
"","null","html-keyboard-response","48","2.0.0","100078","p920knkg1w3","trex","null","<div style=""font-size:60px; color: black;"">+</div>","","","","","","","","","","",""
"","null","image-keyboard-response","49","2.0.0","102082","p920knkg1w3","trex","null","stimuli\STATE\USED\Sseatbelt2.jpg","","","","","Memory","false","null","","","",""
"","null","html-keyboard-response","50","2.0.0","102585","p920knkg1w3","trex","null","<div style=""font-size:60px; color: black;"">+</div>","","","","","","","","","","",""
"","null","image-keyboard-response","51","2.0.0","104589","p920knkg1w3","trex","null","stimuli\EXEMPLAR\USED\Eframe1.jpg","","","","","Memory","false","null","","","",""
"","null","html-keyboard-response","52","2.0.0","105091","p920knkg1w3","trex","null","<div style=""font-size:60px; color: black;"">+</div>","","","","","","","","","","",""
"","null","image-keyboard-response","53","2.0.0","107095","p920knkg1w3","trex","null","stimuli\EXEMPLAR\USED\Ekayak2.jpg","","","","","Memory","false","null","","","",""
"","null","html-keyboard-response","54","2.0.0","107597","p920knkg1w3","trex","null","<div style=""font-size:60px; color: black;"">+</div>","","","","","","","","","","",""
"","null","image-keyboard-response","55","2.0.0","109601","p920knkg1w3","trex","null","stimuli\EXEMPLAR\USED\Ebell2.jpg","","","","","Memory","false","null","","","",""
"","null","html-keyboard-response","56","2.0.0","110103","p920knkg1w3","trex","null","<div style=""font-size:60px; color: black;"">+</div>","","","","","","","","","","",""
"","null","image-keyboard-response","57","2.0.0","112106","p920knkg1w3","trex","null","stimuli\STATE\USED\Siron2.jpg","","","","","Memory","false","null","","","",""
"","null","html-keyboard-response","58","2.0.0","112608","p920knkg1w3","trex","null","<div style=""font-size:60px; color: black;"">+</div>","","","","","","","","","","",""
"","null","image-keyboard-response","59","2.0.0","114612","p920knkg1w3","trex","null","stimuli\EXEMPLAR\USED\Eladder1.jpg","","","","","Memory","false","null","","","",""
"","null","html-keyboard-response","60","2.0.0","115115","p920knkg1w3","trex","null","<div style=""font-size:60px; color: black;"">+</div>","","","","","","","","","","",""
"","null","image-keyboard-response","61","2.0.0","117118","p920knkg1w3","trex","null","stimuli\EXEMPLAR\USED\Epotatochips1.jpg","","","","","Memory","false","null","","","",""
"","null","html-keyboard-response","62","2.0.0","117620","p920knkg1w3","trex","null","<div style=""font-size:60px; color: black;"">+</div>","","","","","","","","","","",""
"","834","image-keyboard-response","63","2.0.0","119624","p920knkg1w3","trex"," ","stimuli\EXEMPLAR\USED\Ebell2.jpg","","","","","Memory","true","true","","","",""
"","null","html-keyboard-response","64","2.0.0","120127","p920knkg1w3","trex","null","<div style=""font-size:60px; color: green;"">+</div>","","","","","","","","","","",""
"","null","image-keyboard-response","65","2.0.0","122135","p920knkg1w3","trex","null","stimuli\EXEMPLAR\USED\Erazor1.jpg","","","","","Memory","false","null","","","",""
"","null","html-keyboard-response","66","2.0.0","122637","p920knkg1w3","trex","null","<div style=""font-size:60px; color: black;"">+</div>","","","","","","","","","","",""
"","null","image-keyboard-response","67","2.0.0","124641","p920knkg1w3","trex","null","stimuli\EXEMPLAR\USED\Etoykeys1.jpg","","","","","Memory","false","null","","","",""
"","null","html-keyboard-response","68","2.0.0","125143","p920knkg1w3","trex","null","<div style=""font-size:60px; color: black;"">+</div>","","","","","","","","","","",""
"","null","image-keyboard-response","69","2.0.0","127146","p920knkg1w3","trex","null","stimuli\STATE\USED\Sbriefcasemetal1.JPG","","","","","Memory","false","null","","","",""
"","null","html-keyboard-response","70","2.0.0","127649","p920knkg1w3","trex","null","<div style=""font-size:60px; color: black;"">+</div>","","","","","","","","","","",""
"","null","image-keyboard-response","71","2.0.0","129653","p920knkg1w3","trex","null","stimuli\STATE\USED\Sdie1.jpg","","","","","Memory","false","null","","","",""
"","null","html-keyboard-response","72","2.0.0","130156","p920knkg1w3","trex","null","<div style=""font-size:60px; color: black;"">+</div>","","","","","","","","","","",""
"","null","image-keyboard-response","73","2.0.0","132159","p920knkg1w3","trex","null","stimuli\EXEMPLAR\USED\Eballoon1.jpg","","","","","Memory","false","null","","","",""
"","null","html-keyboard-response","74","2.0.0","132662","p920knkg1w3","trex","null","<div style=""font-size:60px; color: black;"">+</div>","","","","","","","","","","",""
"","null","image-keyboard-response","75","2.0.0","134666","p920knkg1w3","trex","null","stimuli\STATE\USED\Sredcabbage1.jpg","","","","","Memory","false","null","","","",""
"","null","html-keyboard-response","76","2.0.0","135167","p920knkg1w3","trex","null","<div style=""font-size:60px; color: black;"">+</div>","","","","","","","","","","",""
"","null","image-keyboard-response","77","2.0.0","137171","p920knkg1w3","trex","null","stimuli\EXEMPLAR\USED\Ecake2.jpg","","","","","Memory","false","null","","","",""
"","null","html-keyboard-response","78","2.0.0","137674","p920knkg1w3","trex","null","<div style=""font-size:60px; color: black;"">+</div>","","","","","","","","","","",""
"","null","image-keyboard-response","79","2.0.0","139677","p920knkg1w3","trex","null","stimuli\STATE\USED\Sgiftbox2.jpg","","","","","Memory","false","null","","","",""
"","null","html-keyboard-response","80","2.0.0","140179","p920knkg1w3","trex","null","<div style=""font-size:60px; color: black;"">+</div>","","","","","","","","","","",""
"","null","image-keyboard-response","81","2.0.0","142183","p920knkg1w3","trex","null","stimuli\EXEMPLAR\USED\Echocolatebar1.jpg","","","","","Memory","false","null","","","",""
"","null","html-keyboard-response","82","2.0.0","142685","p920knkg1w3","trex","null","<div style=""font-size:60px; color: black;"">+</div>","","","","","","","","","","",""
"","null","image-keyboard-response","83","2.0.0","144688","p920knkg1w3","trex","null","stimuli\STATE\USED\Sstoplight2.jpg","","","","","Memory","false","null","","","",""
"","null","html-keyboard-response","84","2.0.0","145190","p920knkg1w3","trex","null","<div style=""font-size:60px; color: black;"">+</div>","","","","","","","","","","",""
"","null","image-keyboard-response","85","2.0.0","147193","p920knkg1w3","trex","null","stimuli\STATE\USED\Shandsign1.JPG","","","","","Memory","false","null","","","",""
"","null","html-keyboard-response","86","2.0.0","147697","p920knkg1w3","trex","null","<div style=""font-size:60px; color: black;"">+</div>","","","","","","","","","","",""
"","null","image-keyboard-response","87","2.0.0","149700","p920knkg1w3","trex","null","stimuli\STATE\USED\Sbrie1.JPG","","","","","Memory","false","null","","","",""
"","null","html-keyboard-response","88","2.0.0","150202","p920knkg1w3","trex","null","<div style=""font-size:60px; color: black;"">+</div>","","","","","","","","","","",""
"","null","image-keyboard-response","89","2.0.0","152206","p920knkg1w3","trex","null","stimuli\EXEMPLAR\USED\Echeeses1.jpg","","","","","Memory","false","null","","","",""
"","null","html-keyboard-response","90","2.0.0","152708","p920knkg1w3","trex","null","<div style=""font-size:60px; color: black;"">+</div>","","","","","","","","","","",""
"","null","image-keyboard-response","91","2.0.0","154712","p920knkg1w3","trex","null","stimuli\EXEMPLAR\USED\Eglobe1.jpg","","","","","Memory","false","null","","","",""
"","null","html-keyboard-response","92","2.0.0","155214","p920knkg1w3","trex","null","<div style=""font-size:60px; color: black;"">+</div>","","","","","","","","","","",""
"","null","image-keyboard-response","93","2.0.0","157217","p920knkg1w3","trex","null","stimuli\EXEMPLAR\USED\Estarfish2.jpg","","","","","Memory","false","null","","","",""
"","null","html-keyboard-response","94","2.0.0","157720","p920knkg1w3","trex","null","<div style=""font-size:60px; color: black;"">+</div>","","","","","","","","","","",""
"","null","image-keyboard-response","95","2.0.0","159724","p920knkg1w3","trex","null","stimuli\STATE\USED\Sskull1.jpg","","","","","Memory","false","null","","","",""
"","null","html-keyboard-response","96","2.0.0","160227","p920knkg1w3","trex","null","<div style=""font-size:60px; color: black;"">+</div>","","","","","","","","","","",""
"","null","image-keyboard-response","97","2.0.0","162237","p920knkg1w3","trex","null","stimuli\STATE\USED\Spotpan2.JPG","","","","","Memory","false","null","","","",""
"","null","html-keyboard-response","98","2.0.0","162738","p920knkg1w3","trex","null","<div style=""font-size:60px; color: black;"">+</div>","","","","","","","","","","",""
"","null","image-keyboard-response","99","2.0.0","164742","p920knkg1w3","trex","null","stimuli\STATE\USED\Sapplesredbasket2.JPG","","","","","Memory","false","null","","","",""
"","null","html-keyboard-response","100","2.0.0","165245","p920knkg1w3","trex","null","<div style=""font-size:60px; color: black;"">+</div>","","","","","","","","","","",""
"","739","image-keyboard-response","101","2.0.0","167248","p920knkg1w3","trex"," ","stimuli\EXEMPLAR\USED\Estarfish2.jpg","","","","","Memory","true","true","","","",""
"","null","html-keyboard-response","102","2.0.0","167751","p920knkg1w3","trex","null","<div style=""font-size:60px; color: green;"">+</div>","","","","","","","","","","",""
"","null","image-keyboard-response","103","2.0.0","169754","p920knkg1w3","trex","null","stimuli\STATE\USED\Spie2.JPG","","","","","Memory","false","null","","","",""
"","null","html-keyboard-response","104","2.0.0","170257","p920knkg1w3","trex","null","<div style=""font-size:60px; color: black;"">+</div>","","","","","","","","","","",""
"","null","image-keyboard-response","105","2.0.0","172260","p920knkg1w3","trex","null","stimuli\EXEMPLAR\USED\Efishbowl1.jpg","","","","","Memory","false","null","","","",""
"","null","html-keyboard-response","106","2.0.0","172763","p920knkg1w3","trex","null","<div style=""font-size:60px; color: black;"">+</div>","","","","","","","","","","",""
"","1968","html-button-response","107","2.0.0","174734","p920knkg1w3","trex","0","Are you still there?","","","","","Attention Check","","","","","",""
"","null","image-keyboard-response","108","2.0.0","176737","p920knkg1w3","trex","null","stimuli\EXEMPLAR\USED\Eswimsuit2.jpg","","","","","Memory","false","null","","","",""
"","null","html-keyboard-response","109","2.0.0","177239","p920knkg1w3","trex","null","<div style=""font-size:60px; color: black;"">+</div>","","","","","","","","","","",""
"","null","image-keyboard-response","110","2.0.0","179243","p920knkg1w3","trex","null","stimuli\STATE\USED\Sgiftbag2.jpg","","","","","Memory","false","null","","","",""
"","null","html-keyboard-response","111","2.0.0","179745","p920knkg1w3","trex","null","<div style=""font-size:60px; color: black;"">+</div>","","","","","","","","","","",""
"","null","image-keyboard-response","112","2.0.0","181748","p920knkg1w3","trex","null","stimuli\STATE\USED\Sscanner1.JPG","","","","","Memory","false","null","","","",""
"","null","html-keyboard-response","113","2.0.0","182251","p920knkg1w3","trex","null","<div style=""font-size:60px; color: black;"">+</div>","","","","","","","","","","",""
"","null","image-keyboard-response","114","2.0.0","184254","p920knkg1w3","trex","null","stimuli\STATE\USED\Sbooks1.JPG","","","","","Memory","false","null","","","",""
"","null","html-keyboard-response","115","2.0.0","184756","p920knkg1w3","trex","null","<div style=""font-size:60px; color: black;"">+</div>","","","","","","","","","","",""
"","null","image-keyboard-response","116","2.0.0","186759","p920knkg1w3","trex","null","stimuli\STATE\USED\Sdrum1.jpg","","","","","Memory","false","null","","","",""
"","null","html-keyboard-response","117","2.0.0","187261","p920knkg1w3","trex","null","<div style=""font-size:60px; color: black;"">+</div>","","","","","","","","","","",""
"","null","image-keyboard-response","118","2.0.0","189264","p920knkg1w3","trex","null","stimuli\STATE\USED\Sscissors2.JPG","","","","","Memory","false","null","","","",""
"","null","html-keyboard-response","119","2.0.0","189766","p920knkg1w3","trex","null","<div style=""font-size:60px; color: black;"">+</div>","","","","","","","","","","",""
"","null","image-keyboard-response","120","2.0.0","191770","p920knkg1w3","trex","null","stimuli\STATE\USED\Sscanner1.JPG","","","","","Memory","true","null","","","",""
"","null","html-keyboard-response","121","2.0.0","192273","p920knkg1w3","trex","null","<div style=""font-size:60px; color: black;"">+</div>","","","","","","","","","","",""
"","null","image-keyboard-response","122","2.0.0","194277","p920knkg1w3","trex","null","stimuli\EXEMPLAR\USED\Ehorn1.jpg","","","","","Memory","false","null","","","",""
"","null","html-keyboard-response","123","2.0.0","194780","p920knkg1w3","trex","null","<div style=""font-size:60px; color: black;"">+</div>","","","","","","","","","","",""
"","null","image-keyboard-response","124","2.0.0","196787","p920knkg1w3","trex","null","stimuli\STATE\USED\Spolarbear2.jpg","","","","","Memory","false","null","","","",""
"","null","html-keyboard-response","125","2.0.0","197290","p920knkg1w3","trex","null","<div style=""font-size:60px; color: black;"">+</div>","","","","","","","","","","",""
"","null","image-keyboard-response","126","2.0.0","199293","p920knkg1w3","trex","null","stimuli\EXEMPLAR\USED\Etrophy2.jpg","","","","","Memory","false","null","","","",""
"","null","html-keyboard-response","127","2.0.0","199796","p920knkg1w3","trex","null","<div style=""font-size:60px; color: black;"">+</div>","","","","","","","","","","",""
"","null","image-keyboard-response","128","2.0.0","201799","p920knkg1w3","trex","null","stimuli\STATE\USED\Sapplesgreenbasket1.jpg","","","","","Memory","false","null","","","",""
"","null","html-keyboard-response","129","2.0.0","202302","p920knkg1w3","trex","null","<div style=""font-size:60px; color: black;"">+</div>","","","","","","","","","","",""
"","652","image-keyboard-response","130","2.0.0","204306","p920knkg1w3","trex"," ","stimuli\EXEMPLAR\USED\Ehorn1.jpg","","","","","Memory","true","true","","","",""
"","null","html-keyboard-response","131","2.0.0","204808","p920knkg1w3","trex","null","<div style=""font-size:60px; color: green;"">+</div>","","","","","","","","","","",""
"","null","image-keyboard-response","132","2.0.0","206812","p920knkg1w3","trex","null","stimuli\EXEMPLAR\USED\Epiano1.jpg","","","","","Memory","false","null","","","",""
"","null","html-keyboard-response","133","2.0.0","207315","p920knkg1w3","trex","null","<div style=""font-size:60px; color: black;"">+</div>","","","","","","","","","","",""
"","null","image-keyboard-response","134","2.0.0","209318","p920knkg1w3","trex","null","stimuli\STATE\USED\Stiger1.jpg","","","","","Memory","false","null","","","",""
"","null","html-keyboard-response","135","2.0.0","209819","p920knkg1w3","trex","null","<div style=""font-size:60px; color: black;"">+</div>","","","","","","","","","","",""
"","null","image-keyboard-response","136","2.0.0","211824","p920knkg1w3","trex","null","stimuli\EXEMPLAR\USED\Etoyplane1.jpg","","","","","Memory","false","null","","","",""
"","null","html-keyboard-response","137","2.0.0","212325","p920knkg1w3","trex","null","<div style=""font-size:60px; color: black;"">+</div>","","","","","","","","","","",""
"","null","image-keyboard-response","138","2.0.0","214329","p920knkg1w3","trex","null","stimuli\STATE\USED\Scooker2.jpg","","","","","Memory","false","null","","","",""
"","null","html-keyboard-response","139","2.0.0","214831","p920knkg1w3","trex","null","<div style=""font-size:60px; color: black;"">+</div>","","","","","","","","","","",""
"","null","image-keyboard-response","140","2.0.0","216834","p920knkg1w3","trex","null","stimuli\EXEMPLAR\USED\Esantahat2.jpg","","","","","Memory","false","null","","","",""
"","null","html-keyboard-response","141","2.0.0","217338","p920knkg1w3","trex","null","<div style=""font-size:60px; color: black;"">+</div>","","","","","","","","","","",""
"","null","image-keyboard-response","142","2.0.0","219341","p920knkg1w3","trex","null","stimuli\EXEMPLAR\USED\Eplate1.jpg","","","","","Memory","false","null","","","",""
"","null","html-keyboard-response","143","2.0.0","219843","p920knkg1w3","trex","null","<div style=""font-size:60px; color: black;"">+</div>","","","","","","","","","","",""
"","null","image-keyboard-response","144","2.0.0","221847","p920knkg1w3","trex","null","stimuli\STATE\USED\Sschoolbag2.JPG","","","","","Memory","false","null","","","",""
"","null","html-keyboard-response","145","2.0.0","222350","p920knkg1w3","trex","null","<div style=""font-size:60px; color: black;"">+</div>","","","","","","","","","","",""
"","null","image-keyboard-response","146","2.0.0","224353","p920knkg1w3","trex","null","stimuli\EXEMPLAR\USED\Emedal2.jpg","","","","","Memory","false","null","","","",""
"","null","html-keyboard-response","147","2.0.0","224855","p920knkg1w3","trex","null","<div style=""font-size:60px; color: black;"">+</div>","","","","","","","","","","",""
"","null","image-keyboard-response","148","2.0.0","226859","p920knkg1w3","trex","null","stimuli\EXEMPLAR\USED\Elog2.jpg","","","","","Memory","false","null","","","",""
"","null","html-keyboard-response","149","2.0.0","227366","p920knkg1w3","trex","null","<div style=""font-size:60px; color: black;"">+</div>","","","","","","","","","","",""
"","null","image-keyboard-response","150","2.0.0","229370","p920knkg1w3","trex","null","stimuli\STATE\USED\Spestle1.jpg","","","","","Memory","false","null","","","",""
"","null","html-keyboard-response","151","2.0.0","229872","p920knkg1w3","trex","null","<div style=""font-size:60px; color: black;"">+</div>","","","","","","","","","","",""
"","null","image-keyboard-response","152","2.0.0","231875","p920knkg1w3","trex","null","stimuli\STATE\USED\Swaffleiron2.jpg","","","","","Memory","false","null","","","",""
"","null","html-keyboard-response","153","2.0.0","232378","p920knkg1w3","trex","null","<div style=""font-size:60px; color: black;"">+</div>","","","","","","","","","","",""
"","null","image-keyboard-response","154","2.0.0","234382","p920knkg1w3","trex","null","stimuli\EXEMPLAR\USED\Ebrick1.jpg","","","","","Memory","false","null","","","",""
"","null","html-keyboard-response","155","2.0.0","234885","p920knkg1w3","trex","null","<div style=""font-size:60px; color: black;"">+</div>","","","","","","","","","","",""
"","null","image-keyboard-response","156","2.0.0","236889","p920knkg1w3","trex","null","stimuli\EXEMPLAR\USED\Esunglasses2.jpg","","","","","Memory","false","null","","","",""
"","null","html-keyboard-response","157","2.0.0","237391","p920knkg1w3","trex","null","<div style=""font-size:60px; color: black;"">+</div>","","","","","","","","","","",""
"","883","image-keyboard-response","158","2.0.0","239395","p920knkg1w3","trex"," ","stimuli\STATE\USED\Spestle1.jpg","","","","","Memory","true","true","","","",""
"","null","html-keyboard-response","159","2.0.0","239897","p920knkg1w3","trex","null","<div style=""font-size:60px; color: green;"">+</div>","","","","","","","","","","",""
"","null","image-keyboard-response","160","2.0.0","241901","p920knkg1w3","trex","null","stimuli\EXEMPLAR\USED\Emicroscope2.jpg","","","","","Memory","false","null","","","",""
"","null","html-keyboard-response","161","2.0.0","242402","p920knkg1w3","trex","null","<div style=""font-size:60px; color: black;"">+</div>","","","","","","","","","","",""
"","null","image-keyboard-response","162","2.0.0","244405","p920knkg1w3","trex","null","stimuli\EXEMPLAR\USED\Espraybottle1.jpg","","","","","Memory","false","null","","","",""
"","null","html-keyboard-response","163","2.0.0","244908","p920knkg1w3","trex","null","<div style=""font-size:60px; color: black;"">+</div>","","","","","","","","","","",""
"","null","image-keyboard-response","164","2.0.0","246911","p920knkg1w3","trex","null","stimuli\STATE\USED\Sbureau2.JPG","","","","","Memory","false","null","","","",""
"","null","html-keyboard-response","165","2.0.0","247414","p920knkg1w3","trex","null","<div style=""font-size:60px; color: black;"">+</div>","","","","","","","","","","",""
"","null","image-keyboard-response","166","2.0.0","249417","p920knkg1w3","trex","null","stimuli\EXEMPLAR\USED\Estapler2.jpg","","","","","Memory","false","null","","","",""
"","null","html-keyboard-response","167","2.0.0","249919","p920knkg1w3","trex","null","<div style=""font-size:60px; color: black;"">+</div>","","","","","","","","","","",""
"","null","image-keyboard-response","168","2.0.0","251922","p920knkg1w3","trex","null","stimuli\STATE\USED\Spatiotable2.jpg","","","","","Memory","false","null","","","",""
"","null","html-keyboard-response","169","2.0.0","252425","p920knkg1w3","trex","null","<div style=""font-size:60px; color: black;"">+</div>","","","","","","","","","","",""
"","1168","image-keyboard-response","170","2.0.0","254429","p920knkg1w3","trex"," ","stimuli\EXEMPLAR\USED\Espraybottle1.jpg","","","","","Memory","true","true","","","",""
"","null","html-keyboard-response","171","2.0.0","254933","p920knkg1w3","trex","null","<div style=""font-size:60px; color: green;"">+</div>","","","","","","","","","","",""
"","null","image-keyboard-response","172","2.0.0","256936","p920knkg1w3","trex","null","stimuli\EXEMPLAR\USED\Eremote1.jpg","","","","","Memory","false","null","","","",""
"","null","html-keyboard-response","173","2.0.0","257439","p920knkg1w3","trex","null","<div style=""font-size:60px; color: black;"">+</div>","","","","","","","","","","",""
"","null","image-keyboard-response","174","2.0.0","259441","p920knkg1w3","trex","null","stimuli\STATE\USED\Sbook1.JPG","","","","","Memory","false","null","","","",""
"","null","html-keyboard-response","175","2.0.0","259944","p920knkg1w3","trex","null","<div style=""font-size:60px; color: black;"">+</div>","","","","","","","","","","",""
"","null","image-keyboard-response","176","2.0.0","261948","p920knkg1w3","trex","null","stimuli\STATE\USED\Schinesefoodbox1.jpg","","","","","Memory","false","null","","","",""
"","null","html-keyboard-response","177","2.0.0","262450","p920knkg1w3","trex","null","<div style=""font-size:60px; color: black;"">+</div>","","","","","","","","","","",""
"","null","image-keyboard-response","178","2.0.0","264453","p920knkg1w3","trex","null","stimuli\STATE\USED\Sbabytoy1.JPG","","","","","Memory","false","null","","","",""
"","null","html-keyboard-response","179","2.0.0","264956","p920knkg1w3","trex","null","<div style=""font-size:60px; color: black;"">+</div>","","","","","","","","","","",""
"","null","image-keyboard-response","180","2.0.0","266959","p920knkg1w3","trex","null","stimuli\EXEMPLAR\USED\Enozzle1.jpg","","","","","Memory","false","null","","","",""
"","null","html-keyboard-response","181","2.0.0","267461","p920knkg1w3","trex","null","<div style=""font-size:60px; color: black;"">+</div>","","","","","","","","","","",""
"","692","image-keyboard-response","182","2.0.0","269463","p920knkg1w3","trex"," ","stimuli\STATE\USED\Sbook1.JPG","","","","","Memory","true","true","","","",""
"","null","html-keyboard-response","183","2.0.0","269966","p920knkg1w3","trex","null","<div style=""font-size:60px; color: green;"">+</div>","","","","","","","","","","",""
"","null","image-keyboard-response","184","2.0.0","271968","p920knkg1w3","trex","null","stimuli\EXEMPLAR\USED\Emuffler1.jpg","","","","","Memory","false","null","","","",""
"","null","html-keyboard-response","185","2.0.0","272470","p920knkg1w3","trex","null","<div style=""font-size:60px; color: black;"">+</div>","","","","","","","","","","",""
"","null","image-keyboard-response","186","2.0.0","274473","p920knkg1w3","trex","null","stimuli\EXEMPLAR\USED\Ebracelet1.jpg","","","","","Memory","false","null","","","",""
"","null","html-keyboard-response","187","2.0.0","274976","p920knkg1w3","trex","null","<div style=""font-size:60px; color: black;"">+</div>","","","","","","","","","","",""
"","null","image-keyboard-response","188","2.0.0","276980","p920knkg1w3","trex","null","stimuli\EXEMPLAR\USED\Epliers1.jpg","","","","","Memory","false","null","","","",""
"","null","html-keyboard-response","189","2.0.0","277482","p920knkg1w3","trex","null","<div style=""font-size:60px; color: black;"">+</div>","","","","","","","","","","",""
"","null","image-keyboard-response","190","2.0.0","279486","p920knkg1w3","trex","null","stimuli\STATE\USED\Srhino1.jpg","","","","","Memory","false","null","","","",""
"","null","html-keyboard-response","191","2.0.0","279989","p920knkg1w3","trex","null","<div style=""font-size:60px; color: black;"">+</div>","","","","","","","","","","",""
"","736","image-keyboard-response","192","2.0.0","281992","p920knkg1w3","trex"," ","stimuli\EXEMPLAR\USED\Emuffler1.jpg","","","","","Memory","true","true","","","",""
"","null","html-keyboard-response","193","2.0.0","282495","p920knkg1w3","trex","null","<div style=""font-size:60px; color: green;"">+</div>","","","","","","","","","","",""
"","1202","image-keyboard-response","194","2.0.0","284499","p920knkg1w3","trex"," ","stimuli\STATE\USED\Scoffeemaker2.JPG","","","","","Memory","false","false","","","",""
"","null","html-keyboard-response","195","2.0.0","285001","p920knkg1w3","trex","null","<div style=""font-size:60px; color: red;"">+</div>","","","","","","","","","","",""
"","null","image-keyboard-response","196","2.0.0","287004","p920knkg1w3","trex","null","stimuli\EXEMPLAR\USED\Esuitcase2.jpg","","","","","Memory","false","null","","","",""
"","null","html-keyboard-response","197","2.0.0","287507","p920knkg1w3","trex","null","<div style=""font-size:60px; color: black;"">+</div>","","","","","","","","","","",""
"","null","image-keyboard-response","198","2.0.0","289510","p920knkg1w3","trex","null","stimuli\EXEMPLAR\USED\Emitt2.jpg","","","","","Memory","false","null","","","",""
"","null","html-keyboard-response","199","2.0.0","290013","p920knkg1w3","trex","null","<div style=""font-size:60px; color: black;"">+</div>","","","","","","","","","","",""
"","null","image-keyboard-response","200","2.0.0","292017","p920knkg1w3","trex","null","stimuli\STATE\USED\Sbarnmailbox1.jpg","","","","","Memory","false","null","","","",""
"","null","html-keyboard-response","201","2.0.0","292520","p920knkg1w3","trex","null","<div style=""font-size:60px; color: black;"">+</div>","","","","","","","","","","",""
"","null","image-keyboard-response","202","2.0.0","294523","p920knkg1w3","trex","null","stimuli\STATE\USED\Slaptop2.JPG","","","","","Memory","false","null","","","",""
"","null","html-keyboard-response","203","2.0.0","295024","p920knkg1w3","trex","null","<div style=""font-size:60px; color: black;"">+</div>","","","","","","","","","","",""
"","null","image-keyboard-response","204","2.0.0","297028","p920knkg1w3","trex","null","stimuli\STATE\USED\Sflask1.jpg","","","","","Memory","false","null","","","",""
"","null","html-keyboard-response","205","2.0.0","297530","p920knkg1w3","trex","null","<div style=""font-size:60px; color: black;"">+</div>","","","","","","","","","","",""
"","625","image-keyboard-response","206","2.0.0","299533","p920knkg1w3","trex"," ","stimuli\EXEMPLAR\USED\Emitt2.jpg","","","","","Memory","true","true","","","",""
"","null","html-keyboard-response","207","2.0.0","300036","p920knkg1w3","trex","null","<div style=""font-size:60px; color: green;"">+</div>","","","","","","","","","","",""
"","null","image-keyboard-response","208","2.0.0","302039","p920knkg1w3","trex","null","stimuli\STATE\USED\Sbelt2.jpg","","","","","Memory","false","null","","","",""
"","null","html-keyboard-response","209","2.0.0","302542","p920knkg1w3","trex","null","<div style=""font-size:60px; color: black;"">+</div>","","","","","","","","","","",""
"","1222","html-button-response","210","2.0.0","303766","p920knkg1w3","trex","0","Are you still there?","","","","","Attention Check","","","","","",""
"","null","image-keyboard-response","211","2.0.0","305768","p920knkg1w3","trex","null","stimuli\EXEMPLAR\USED\Eicecream2.jpg","","","","","Memory","false","null","","","",""
"","null","html-keyboard-response","212","2.0.0","306270","p920knkg1w3","trex","null","<div style=""font-size:60px; color: black;"">+</div>","","","","","","","","","","",""
"","null","image-keyboard-response","213","2.0.0","308273","p920knkg1w3","trex","null","stimuli\EXEMPLAR\USED\Ebread2.jpg","","","","","Memory","false","null","","","",""
"","null","html-keyboard-response","214","2.0.0","308775","p920knkg1w3","trex","null","<div style=""font-size:60px; color: black;"">+</div>","","","","","","","","","","",""
"","null","image-keyboard-response","215","2.0.0","310779","p920knkg1w3","trex","null","stimuli\STATE\USED\Sbox2.jpg","","","","","Memory","false","null","","","",""
"","null","html-keyboard-response","216","2.0.0","311281","p920knkg1w3","trex","null","<div style=""font-size:60px; color: black;"">+</div>","","","","","","","","","","",""
"","640","image-keyboard-response","217","2.0.0","313284","p920knkg1w3","trex"," ","stimuli\STATE\USED\Sbelt2.jpg","","","","","Memory","true","true","","","",""
"","null","html-keyboard-response","218","2.0.0","313786","p920knkg1w3","trex","null","<div style=""font-size:60px; color: green;"">+</div>","","","","","","","","","","",""
"","858","image-keyboard-response","219","2.0.0","315790","p920knkg1w3","trex"," ","stimuli\EXEMPLAR\USED\Ecalculator1.jpg","","","","","Memory","false","false","","","",""
"","null","html-keyboard-response","220","2.0.0","316292","p920knkg1w3","trex","null","<div style=""font-size:60px; color: red;"">+</div>","","","","","","","","","","",""
"","null","image-keyboard-response","221","2.0.0","318295","p920knkg1w3","trex","null","stimuli\STATE\USED\Sgrinder2.jpg","","","","","Memory","false","null","","","",""
"","null","html-keyboard-response","222","2.0.0","318797","p920knkg1w3","trex","null","<div style=""font-size:60px; color: black;"">+</div>","","","","","","","","","","",""
"","null","image-keyboard-response","223","2.0.0","320800","p920knkg1w3","trex","null","stimuli\STATE\USED\Sscales1.jpg","","","","","Memory","false","null","","","",""
"","null","html-keyboard-response","224","2.0.0","321303","p920knkg1w3","trex","null","<div style=""font-size:60px; color: black;"">+</div>","","","","","","","","","","",""
"","null","image-keyboard-response","225","2.0.0","323306","p920knkg1w3","trex","null","stimuli\EXEMPLAR\USED\Etractor2.jpg","","","","","Memory","false","null","","","",""
"","null","html-keyboard-response","226","2.0.0","323808","p920knkg1w3","trex","null","<div style=""font-size:60px; color: black;"">+</div>","","","","","","","","","","",""
"","null","image-keyboard-response","227","2.0.0","325812","p920knkg1w3","trex","null","stimuli\STATE\USED\Shairbrush2.jpg","","","","","Memory","false","null","","","",""
"","null","html-keyboard-response","228","2.0.0","326315","p920knkg1w3","trex","null","<div style=""font-size:60px; color: black;"">+</div>","","","","","","","","","","",""
"","null","image-keyboard-response","229","2.0.0","328318","p920knkg1w3","trex","null","stimuli\EXEMPLAR\USED\Ebicycle1.jpg","","","","","Memory","false","null","","","",""
"","null","html-keyboard-response","230","2.0.0","328821","p920knkg1w3","trex","null","<div style=""font-size:60px; color: black;"">+</div>","","","","","","","","","","",""
"","712","image-keyboard-response","231","2.0.0","330824","p920knkg1w3","trex"," ","stimuli\STATE\USED\Sscales1.jpg","","","","","Memory","true","true","","","",""
"","null","html-keyboard-response","232","2.0.0","331327","p920knkg1w3","trex","null","<div style=""font-size:60px; color: green;"">+</div>","","","","","","","","","","",""
"","null","image-keyboard-response","233","2.0.0","333329","p920knkg1w3","trex","null","stimuli\EXEMPLAR\USED\Ewineglass2.jpg","","","","","Memory","false","null","","","",""
"","null","html-keyboard-response","234","2.0.0","333832","p920knkg1w3","trex","null","<div style=""font-size:60px; color: black;"">+</div>","","","","","","","","","","",""
"","null","image-keyboard-response","235","2.0.0","335836","p920knkg1w3","trex","null","stimuli\EXEMPLAR\USED\Eholepunch1.jpg","","","","","Memory","false","null","","","",""
"","null","html-keyboard-response","236","2.0.0","336338","p920knkg1w3","trex","null","<div style=""font-size:60px; color: black;"">+</div>","","","","","","","","","","",""
"","null","image-keyboard-response","237","2.0.0","338342","p920knkg1w3","trex","null","stimuli\EXEMPLAR\USED\Ebinoculars2.jpg","","","","","Memory","false","null","","","",""
"","null","html-keyboard-response","238","2.0.0","338844","p920knkg1w3","trex","null","<div style=""font-size:60px; color: black;"">+</div>","","","","","","","","","","",""
"","null","image-keyboard-response","239","2.0.0","340847","p920knkg1w3","trex","null","stimuli\STATE\USED\Slockbox1.jpg","","","","","Memory","false","null","","","",""
"","null","html-keyboard-response","240","2.0.0","341349","p920knkg1w3","trex","null","<div style=""font-size:60px; color: black;"">+</div>","","","","","","","","","","",""
"","null","image-keyboard-response","241","2.0.0","343352","p920knkg1w3","trex","null","stimuli\EXEMPLAR\USED\Ebunny1.jpg","","","","","Memory","false","null","","","",""
"","null","html-keyboard-response","242","2.0.0","343854","p920knkg1w3","trex","null","<div style=""font-size:60px; color: black;"">+</div>","","","","","","","","","","",""
"","null","image-keyboard-response","243","2.0.0","345858","p920knkg1w3","trex","null","stimuli\EXEMPLAR\USED\Edispenser1.jpg","","","","","Memory","false","null","","","",""
"","null","html-keyboard-response","244","2.0.0","346359","p920knkg1w3","trex","null","<div style=""font-size:60px; color: black;"">+</div>","","","","","","","","","","",""
"","null","image-keyboard-response","245","2.0.0","348362","p920knkg1w3","trex","null","stimuli\EXEMPLAR\USED\Ebonzai1.jpg","","","","","Memory","false","null","","","",""
"","null","html-keyboard-response","246","2.0.0","348865","p920knkg1w3","trex","null","<div style=""font-size:60px; color: black;"">+</div>","","","","","","","","","","",""
"","null","image-keyboard-response","247","2.0.0","350868","p920knkg1w3","trex","null","stimuli\EXEMPLAR\USED\Egame1.jpg","","","","","Memory","false","null","","","",""
"","null","html-keyboard-response","248","2.0.0","351371","p920knkg1w3","trex","null","<div style=""font-size:60px; color: black;"">+</div>","","","","","","","","","","",""
"","null","image-keyboard-response","249","2.0.0","353374","p920knkg1w3","trex","null","stimuli\STATE\USED\Sphone2.JPG","","","","","Memory","false","null","","","",""
"","null","html-keyboard-response","250","2.0.0","353877","p920knkg1w3","trex","null","<div style=""font-size:60px; color: black;"">+</div>","","","","","","","","","","",""
"","693","image-keyboard-response","251","2.0.0","355880","p920knkg1w3","trex"," ","stimuli\EXEMPLAR\USED\Edispenser1.jpg","","","","","Memory","true","true","","","",""
"","null","html-keyboard-response","252","2.0.0","356382","p920knkg1w3","trex","null","<div style=""font-size:60px; color: green;"">+</div>","","","","","","","","","","",""
"","null","image-keyboard-response","253","2.0.0","358386","p920knkg1w3","trex","null","stimuli\STATE\USED\Spicnicbasket1.jpg","","","","","Memory","false","null","","","",""
"","null","html-keyboard-response","254","2.0.0","358889","p920knkg1w3","trex","null","<div style=""font-size:60px; color: black;"">+</div>","","","","","","","","","","",""
"","null","image-keyboard-response","255","2.0.0","360892","p920knkg1w3","trex","null","stimuli\STATE\USED\Sjuiceglass2.JPG","","","","","Memory","false","null","","","",""
"","null","html-keyboard-response","256","2.0.0","361394","p920knkg1w3","trex","null","<div style=""font-size:60px; color: black;"">+</div>","","","","","","","","","","",""
"","null","image-keyboard-response","257","2.0.0","363398","p920knkg1w3","trex","null","stimuli\STATE\USED\Saccordion1.jpg","","","","","Memory","false","null","","","",""
"","null","html-keyboard-response","258","2.0.0","363900","p920knkg1w3","trex","null","<div style=""font-size:60px; color: black;"">+</div>","","","","","","","","","","",""
"","null","image-keyboard-response","259","2.0.0","365902","p920knkg1w3","trex","null","stimuli\STATE\USED\Sphoneold2.jpg","","","","","Memory","false","null","","","",""
"","null","html-keyboard-response","260","2.0.0","366405","p920knkg1w3","trex","null","<div style=""font-size:60px; color: black;"">+</div>","","","","","","","","","","",""
"","null","image-keyboard-response","261","2.0.0","368409","p920knkg1w3","trex","null","stimuli\EXEMPLAR\USED\Edinosaur1.jpg","","","","","Memory","false","null","","","",""
"","null","html-keyboard-response","262","2.0.0","368912","p920knkg1w3","trex","null","<div style=""font-size:60px; color: black;"">+</div>","","","","","","","","","","",""
"","null","image-keyboard-response","263","2.0.0","370915","p920knkg1w3","trex","null","stimuli\STATE\USED\Shandshake2.JPG","","","","","Memory","false","null","","","",""
"","null","html-keyboard-response","264","2.0.0","371417","p920knkg1w3","trex","null","<div style=""font-size:60px; color: black;"">+</div>","","","","","","","","","","",""
"","null","image-keyboard-response","265","2.0.0","373420","p920knkg1w3","trex","null","stimuli\STATE\USED\Saccordion1.jpg","","","","","Memory","true","null","","","",""
"","null","html-keyboard-response","266","2.0.0","373923","p920knkg1w3","trex","null","<div style=""font-size:60px; color: black;"">+</div>","","","","","","","","","","",""
"","null","image-keyboard-response","267","2.0.0","375927","p920knkg1w3","trex","null","stimuli\EXEMPLAR\USED\Emoney1.jpg","","","","","Memory","false","null","","","",""
"","null","html-keyboard-response","268","2.0.0","376430","p920knkg1w3","trex","null","<div style=""font-size:60px; color: black;"">+</div>","","","","","","","","","","",""
"","null","image-keyboard-response","269","2.0.0","378433","p920knkg1w3","trex","null","stimuli\STATE\USED\Sdonut1.jpg","","","","","Memory","false","null","","","",""
"","null","html-keyboard-response","270","2.0.0","378936","p920knkg1w3","trex","null","<div style=""font-size:60px; color: black;"">+</div>","","","","","","","","","","",""
"","null","image-keyboard-response","271","2.0.0","380939","p920knkg1w3","trex","null","stimuli\STATE\USED\Sclipboard1.jpg","","","","","Memory","false","null","","","",""
"","null","html-keyboard-response","272","2.0.0","381442","p920knkg1w3","trex","null","<div style=""font-size:60px; color: black;"">+</div>","","","","","","","","","","",""
"","null","image-keyboard-response","273","2.0.0","383445","p920knkg1w3","trex","null","stimuli\STATE\USED\Ssweater1.jpg","","","","","Memory","false","null","","","",""
"","null","html-keyboard-response","274","2.0.0","383948","p920knkg1w3","trex","null","<div style=""font-size:60px; color: black;"">+</div>","","","","","","","","","","",""
"","523","image-keyboard-response","275","2.0.0","385950","p920knkg1w3","trex"," ","stimuli\EXEMPLAR\USED\Emoney1.jpg","","","","","Memory","true","true","","","",""
"","null","html-keyboard-response","276","2.0.0","386453","p920knkg1w3","trex","null","<div style=""font-size:60px; color: green;"">+</div>","","","","","","","","","","",""
"","null","image-keyboard-response","277","2.0.0","388455","p920knkg1w3","trex","null","stimuli\EXEMPLAR\USED\Erabbit1.jpg","","","","","Memory","false","null","","","",""
"","null","html-keyboard-response","278","2.0.0","388958","p920knkg1w3","trex","null","<div style=""font-size:60px; color: black;"">+</div>","","","","","","","","","","",""
"","null","image-keyboard-response","279","2.0.0","390961","p920knkg1w3","trex","null","stimuli\STATE\USED\Sapple2.jpg","","","","","Memory","false","null","","","",""
"","null","html-keyboard-response","280","2.0.0","391464","p920knkg1w3","trex","null","<div style=""font-size:60px; color: black;"">+</div>","","","","","","","","","","",""
"","null","image-keyboard-response","281","2.0.0","393467","p920knkg1w3","trex","null","stimuli\EXEMPLAR\USED\Eguitar1.jpg","","","","","Memory","false","null","","","",""
"","null","html-keyboard-response","282","2.0.0","393969","p920knkg1w3","trex","null","<div style=""font-size:60px; color: black;"">+</div>","","","","","","","","","","",""
"","null","image-keyboard-response","283","2.0.0","395972","p920knkg1w3","trex","null","stimuli\EXEMPLAR\USED\Escroll2.jpg","","","","","Memory","false","null","","","",""
"","null","html-keyboard-response","284","2.0.0","396474","p920knkg1w3","trex","null","<div style=""font-size:60px; color: black;"">+</div>","","","","","","","","","","",""
"","null","image-keyboard-response","285","2.0.0","398478","p920knkg1w3","trex","null","stimuli\STATE\USED\Sdoughhands1.jpg","","","","","Memory","false","null","","","",""
"","null","html-keyboard-response","286","2.0.0","398980","p920knkg1w3","trex","null","<div style=""font-size:60px; color: black;"">+</div>","","","","","","","","","","",""
"","null","image-keyboard-response","287","2.0.0","400983","p920knkg1w3","trex","null","stimuli\STATE\USED\Srainbowslice2.jpg","","","","","Memory","false","null","","","",""
"","null","html-keyboard-response","288","2.0.0","401486","p920knkg1w3","trex","null","<div style=""font-size:60px; color: black;"">+</div>","","","","","","","","","","",""
"","null","image-keyboard-response","289","2.0.0","403489","p920knkg1w3","trex","null","stimuli\EXEMPLAR\USED\Etrowel2.jpg","","","","","Memory","false","null","","","",""
"","null","html-keyboard-response","290","2.0.0","403991","p920knkg1w3","trex","null","<div style=""font-size:60px; color: black;"">+</div>","","","","","","","","","","",""
"","null","image-keyboard-response","291","2.0.0","405995","p920knkg1w3","trex","null","stimuli\EXEMPLAR\USED\Escroll2.jpg","","","","","Memory","true","null","","","",""
"","null","html-keyboard-response","292","2.0.0","406498","p920knkg1w3","trex","null","<div style=""font-size:60px; color: black;"">+</div>","","","","","","","","","","",""
"","null","image-keyboard-response","293","2.0.0","408501","p920knkg1w3","trex","null","stimuli\EXEMPLAR\USED\Econe2.jpg","","","","","Memory","false","null","","","",""
"","null","html-keyboard-response","294","2.0.0","409003","p920knkg1w3","trex","null","<div style=""font-size:60px; color: black;"">+</div>","","","","","","","","","","",""
"","null","image-keyboard-response","295","2.0.0","411006","p920knkg1w3","trex","null","stimuli\EXEMPLAR\USED\Eteapot1.JPG","","","","","Memory","false","null","","","",""
"","null","html-keyboard-response","296","2.0.0","411509","p920knkg1w3","trex","null","<div style=""font-size:60px; color: black;"">+</div>","","","","","","","","","","",""
"","null","image-keyboard-response","297","2.0.0","413512","p920knkg1w3","trex","null","stimuli\STATE\USED\Sseats2.jpg","","","","","Memory","false","null","","","",""
"","null","html-keyboard-response","298","2.0.0","414016","p920knkg1w3","trex","null","<div style=""font-size:60px; color: black;"">+</div>","","","","","","","","","","",""
"","null","image-keyboard-response","299","2.0.0","416019","p920knkg1w3","trex","null","stimuli\EXEMPLAR\USED\Eturtle1.jpg","","","","","Memory","false","null","","","",""
"","null","html-keyboard-response","300","2.0.0","416522","p920knkg1w3","trex","null","<div style=""font-size:60px; color: black;"">+</div>","","","","","","","","","","",""
"","null","image-keyboard-response","301","2.0.0","418524","p920knkg1w3","trex","null","stimuli\EXEMPLAR\USED\Ehanger1.jpg","","","","","Memory","false","null","","","",""
"","null","html-keyboard-response","302","2.0.0","419027","p920knkg1w3","trex","null","<div style=""font-size:60px; color: black;"">+</div>","","","","","","","","","","",""
"","null","image-keyboard-response","303","2.0.0","421030","p920knkg1w3","trex","null","stimuli\STATE\USED\Spadlock2.jpg","","","","","Memory","false","null","","","",""
"","null","html-keyboard-response","304","2.0.0","421532","p920knkg1w3","trex","null","<div style=""font-size:60px; color: black;"">+</div>","","","","","","","","","","",""
"","null","image-keyboard-response","305","2.0.0","423536","p920knkg1w3","trex","null","stimuli\EXEMPLAR\USED\Etoyhand1.jpg","","","","","Memory","false","null","","","",""
"","null","html-keyboard-response","306","2.0.0","424038","p920knkg1w3","trex","null","<div style=""font-size:60px; color: black;"">+</div>","","","","","","","","","","",""
"","null","image-keyboard-response","307","2.0.0","426041","p920knkg1w3","trex","null","stimuli\EXEMPLAR\USED\Emuffin2.jpg","","","","","Memory","false","null","","","",""
"","null","html-keyboard-response","308","2.0.0","426544","p920knkg1w3","trex","null","<div style=""font-size:60px; color: black;"">+</div>","","","","","","","","","","",""
"","null","image-keyboard-response","309","2.0.0","428548","p920knkg1w3","trex","null","stimuli\STATE\USED\Sumbrella1.jpg","","","","","Memory","false","null","","","",""
"","null","html-keyboard-response","310","2.0.0","429051","p920knkg1w3","trex","null","<div style=""font-size:60px; color: black;"">+</div>","","","","","","","","","","",""
"","null","image-keyboard-response","311","2.0.0","431053","p920knkg1w3","trex","null","stimuli\EXEMPLAR\USED\Etongs2.jpg","","","","","Memory","false","null","","","",""
"","null","html-keyboard-response","312","2.0.0","431556","p920knkg1w3","trex","null","<div style=""font-size:60px; color: black;"">+</div>","","","","","","","","","","",""
"","1191","html-button-response","313","2.0.0","432749","p920knkg1w3","trex","0","Are you still there?","","","","","Attention Check","","","","","",""
"","null","image-keyboard-response","314","2.0.0","434751","p920knkg1w3","trex","null","stimuli\EXEMPLAR\USED\Eelectricbass1.jpg","","","","","Memory","false","null","","","",""
"","null","html-keyboard-response","315","2.0.0","435253","p920knkg1w3","trex","null","<div style=""font-size:60px; color: black;"">+</div>","","","","","","","","","","",""
"","null","image-keyboard-response","316","2.0.0","437256","p920knkg1w3","trex","null","stimuli\EXEMPLAR\USED\Elei1.jpg","","","","","Memory","false","null","","","",""
"","null","html-keyboard-response","317","2.0.0","437759","p920knkg1w3","trex","null","<div style=""font-size:60px; color: black;"">+</div>","","","","","","","","","","",""
"","null","image-keyboard-response","318","2.0.0","439762","p920knkg1w3","trex","null","stimuli\STATE\USED\Saccordionsmall1.JPG","","","","","Memory","false","null","","","",""
"","null","html-keyboard-response","319","2.0.0","440264","p920knkg1w3","trex","null","<div style=""font-size:60px; color: black;"">+</div>","","","","","","","","","","",""
"","1094","image-keyboard-response","320","2.0.0","442268","p920knkg1w3","trex"," ","stimuli\STATE\USED\Snapkins2.jpg","","","","","Memory","false","false","","","",""
"","null","html-keyboard-response","321","2.0.0","442771","p920knkg1w3","trex","null","<div style=""font-size:60px; color: red;"">+</div>","","","","","","","","","","",""
"","null","image-keyboard-response","322","2.0.0","444773","p920knkg1w3","trex","null","stimuli\STATE\USED\Sbrushes1.jpg","","","","","Memory","false","null","","","",""
"","null","html-keyboard-response","323","2.0.0","445275","p920knkg1w3","trex","null","<div style=""font-size:60px; color: black;"">+</div>","","","","","","","","","","",""
"","null","image-keyboard-response","324","2.0.0","447278","p920knkg1w3","trex","null","stimuli\EXEMPLAR\USED\Earch1.jpg","","","","","Memory","false","null","","","",""
"","null","html-keyboard-response","325","2.0.0","447781","p920knkg1w3","trex","null","<div style=""font-size:60px; color: black;"">+</div>","","","","","","","","","","",""
"","689","image-keyboard-response","326","2.0.0","449783","p920knkg1w3","trex"," ","stimuli\STATE\USED\Saccordionsmall1.JPG","","","","","Memory","true","true","","","",""
"","null","html-keyboard-response","327","2.0.0","450285","p920knkg1w3","trex","null","<div style=""font-size:60px; color: green;"">+</div>","","","","","","","","","","",""
"","null","image-keyboard-response","328","2.0.0","452288","p920knkg1w3","trex","null","stimuli\STATE\USED\Smetronome1.jpg","","","","","Memory","false","null","","","",""
"","null","html-keyboard-response","329","2.0.0","452791","p920knkg1w3","trex","null","<div style=""font-size:60px; color: black;"">+</div>","","","","","","","","","","",""
"","null","image-keyboard-response","330","2.0.0","454794","p920knkg1w3","trex","null","stimuli\STATE\USED\Sdresser2.jpg","","","","","Memory","false","null","","","",""
"","null","html-keyboard-response","331","2.0.0","455297","p920knkg1w3","trex","null","<div style=""font-size:60px; color: black;"">+</div>","","","","","","","","","","",""
"","null","image-keyboard-response","332","2.0.0","457300","p920knkg1w3","trex","null","stimuli\EXEMPLAR\USED\Epeppers1.jpg","","","","","Memory","false","null","","","",""
"","null","html-keyboard-response","333","2.0.0","457803","p920knkg1w3","trex","null","<div style=""font-size:60px; color: black;"">+</div>","","","","","","","","","","",""
"","null","image-keyboard-response","334","2.0.0","459806","p920knkg1w3","trex","null","stimuli\EXEMPLAR\USED\Etoywrench2.jpg","","","","","Memory","false","null","","","",""
"","null","html-keyboard-response","335","2.0.0","460308","p920knkg1w3","trex","null","<div style=""font-size:60px; color: black;"">+</div>","","","","","","","","","","",""
"","1067","image-keyboard-response","336","2.0.0","462311","p920knkg1w3","trex"," ","stimuli\STATE\USED\Smetronome1.jpg","","","","","Memory","true","true","","","",""
"","null","html-keyboard-response","337","2.0.0","462814","p920knkg1w3","trex","null","<div style=""font-size:60px; color: green;"">+</div>","","","","","","","","","","",""
"","1189","image-keyboard-response","338","2.0.0","464817","p920knkg1w3","trex"," ","stimuli\STATE\USED\Stypewriter1.jpg","","","","","Memory","false","false","","","",""
"","null","html-keyboard-response","339","2.0.0","465319","p920knkg1w3","trex","null","<div style=""font-size:60px; color: red;"">+</div>","","","","","","","","","","",""
"","621","image-keyboard-response","340","2.0.0","467322","p920knkg1w3","trex"," ","stimuli\EXEMPLAR\USED\Eremover1.jpg","","","","","Memory","false","false","","","",""
"","null","html-keyboard-response","341","2.0.0","467824","p920knkg1w3","trex","null","<div style=""font-size:60px; color: red;"">+</div>","","","","","","","","","","",""
"","null","image-keyboard-response","342","2.0.0","469827","p920knkg1w3","trex","null","stimuli\STATE\USED\Shandmirror2.jpg","","","","","Memory","false","null","","","",""
"","null","html-keyboard-response","343","2.0.0","470330","p920knkg1w3","trex","null","<div style=""font-size:60px; color: black;"">+</div>","","","","","","","","","","",""
"","null","image-keyboard-response","344","2.0.0","472333","p920knkg1w3","trex","null","stimuli\STATE\USED\Sdishwasher2.jpg","","","","","Memory","false","null","","","",""
"","null","html-keyboard-response","345","2.0.0","472835","p920knkg1w3","trex","null","<div style=""font-size:60px; color: black;"">+</div>","","","","","","","","","","",""
"","null","image-keyboard-response","346","2.0.0","474838","p920knkg1w3","trex","null","stimuli\EXEMPLAR\USED\Ehoe2.jpg","","","","","Memory","false","null","","","",""
"","null","html-keyboard-response","347","2.0.0","475340","p920knkg1w3","trex","null","<div style=""font-size:60px; color: black;"">+</div>","","","","","","","","","","",""
"","10396","html-keyboard-response","348","2.0.0","485737","p920knkg1w3","trex"," ","
          <p>In the next part of this experiment, you will see 2 images. Please select the image that you recall from the image stream.</p>
          <p>You will also rate your confidence for each image you recall.</p>
          <p>Press any key to start.</p>
        ","","","","","","","","","","",""
"","1526","html-button-response","349","2.0.0","487265","p920knkg1w3","trex","1","Which of these items did you see before?","","","","","Test","","true","[""stimuli\\EXEMPLAR\\USED\\Elog1.jpg"",""stimuli\\EXEMPLAR\\USED\\Elog2.jpg""]","stimuli\EXEMPLAR\USED\Elog2.jpg","stimuli\EXEMPLAR\USED\Elog2.jpg",""
"","3727","image-slider-response","350","2.0.0","490997","p920knkg1w3","trex","5","stimuli\EXEMPLAR\USED\Elog2.jpg","","","","","","","","","","","3"
"","1600","html-button-response","351","2.0.0","492598","p920knkg1w3","trex","0","Which of these items did you see before?","","","","","Test","","true","[""stimuli\\EXEMPLAR\\USED\\Emedal2.jpg"",""stimuli\\EXEMPLAR\\USED\\Emedal1.jpg""]","stimuli\EXEMPLAR\USED\Emedal2.jpg","stimuli\EXEMPLAR\USED\Emedal2.jpg",""
"","1747","image-slider-response","352","2.0.0","494348","p920knkg1w3","trex","5","stimuli\EXEMPLAR\USED\Emedal2.jpg","","","","","","","","","","","3"
"","1397","html-button-response","353","2.0.0","495747","p920knkg1w3","trex","1","Which of these items did you see before?","","","","","Test","","true","[""stimuli\\EXEMPLAR\\USED\\Etoykeys2.JPG"",""stimuli\\EXEMPLAR\\USED\\Etoykeys1.jpg""]","stimuli\EXEMPLAR\USED\Etoykeys1.jpg","stimuli\EXEMPLAR\USED\Etoykeys1.jpg",""
"","1664","image-slider-response","354","2.0.0","497413","p920knkg1w3","trex","5","stimuli\EXEMPLAR\USED\Etoykeys1.jpg","","","","","","","","","","","3"
"","1200","html-button-response","355","2.0.0","498615","p920knkg1w3","trex","0","Which of these items did you see before?","","","","","Test","","true","[""stimuli\\STATE\\USED\\Sschoolbag2.JPG"",""stimuli\\STATE\\USED\\Sschoolbag1.JPG""]","stimuli\STATE\USED\Sschoolbag2.JPG","stimuli\STATE\USED\Sschoolbag2.JPG",""
"","2330","image-slider-response","356","2.0.0","500948","p920knkg1w3","trex","5","stimuli\STATE\USED\Sschoolbag2.JPG","","","","","","","","","","","3"
"","1464","html-button-response","357","2.0.0","502415","p920knkg1w3","trex","0","Which of these items did you see before?","","","","","Test","","true","[""stimuli\\EXEMPLAR\\USED\\Ehoe2.jpg"",""stimuli\\EXEMPLAR\\USED\\Ehoe1.jpg""]","stimuli\EXEMPLAR\USED\Ehoe2.jpg","stimuli\EXEMPLAR\USED\Ehoe2.jpg",""
"","3247","image-slider-response","358","2.0.0","505664","p920knkg1w3","trex","4","stimuli\EXEMPLAR\USED\Ehoe2.jpg","","","","","","","","","","","3"
"","5798","html-button-response","359","2.0.0","511464","p920knkg1w3","trex","0","Which of these items did you see before?","","","","","Test","","false","[""stimuli\\EXEMPLAR\\USED\\Ebrick2.jpg"",""stimuli\\EXEMPLAR\\USED\\Ebrick1.jpg""]","stimuli\EXEMPLAR\USED\Ebrick1.jpg","stimuli\EXEMPLAR\USED\Ebrick2.jpg",""
"","5364","image-slider-response","360","2.0.0","516832","p920knkg1w3","trex","1","stimuli\EXEMPLAR\USED\Ebrick2.jpg","","","","","","","","","","","3"
"","2031","html-button-response","361","2.0.0","518864","p920knkg1w3","trex","0","Which of these items did you see before?","","","","","Test","","true","[""stimuli\\EXEMPLAR\\USED\\Ebell2.jpg"",""stimuli\\EXEMPLAR\\USED\\Ebell1.jpg""]","stimuli\EXEMPLAR\USED\Ebell2.jpg","stimuli\EXEMPLAR\USED\Ebell2.jpg",""
"","5531","image-slider-response","362","2.0.0","524398","p920knkg1w3","trex","3","stimuli\EXEMPLAR\USED\Ebell2.jpg","","","","","","","","","","","3"
"","1714","html-button-response","363","2.0.0","526114","p920knkg1w3","trex","0","Which of these items did you see before?","","","","","Test","","true","[""stimuli\\STATE\\USED\\Stiger1.jpg"",""stimuli\\STATE\\USED\\Stiger2.jpg""]","stimuli\STATE\USED\Stiger1.jpg","stimuli\STATE\USED\Stiger1.jpg",""
"","1614","image-slider-response","364","2.0.0","527731","p920knkg1w3","trex","4","stimuli\STATE\USED\Stiger1.jpg","","","","","","","","","","","3"
"","1681","html-button-response","365","2.0.0","529414","p920knkg1w3","trex","0","Which of these items did you see before?","","","","","Test","","true","[""stimuli\\STATE\\USED\\Sdishes1.JPG"",""stimuli\\STATE\\USED\\Sdishes2.JPG""]","stimuli\STATE\USED\Sdishes1.JPG","stimuli\STATE\USED\Sdishes1.JPG",""
"","2963","image-slider-response","366","2.0.0","532381","p920knkg1w3","trex","3","stimuli\STATE\USED\Sdishes1.JPG","","","","","","","","","","","3"
"","3365","html-button-response","367","2.0.0","535748","p920knkg1w3","trex","0","Which of these items did you see before?","","","","","Test","","true","[""stimuli\\STATE\\USED\\Sdie1.jpg"",""stimuli\\STATE\\USED\\Sdie2.jpg""]","stimuli\STATE\USED\Sdie1.jpg","stimuli\STATE\USED\Sdie1.jpg",""
"","1647","image-slider-response","368","2.0.0","537398","p920knkg1w3","trex","1","stimuli\STATE\USED\Sdie1.jpg","","","","","","","","","","","3"
"","1847","html-button-response","369","2.0.0","539247","p920knkg1w3","trex","0","Which of these items did you see before?","","","","","Test","","true","[""stimuli\\STATE\\USED\\Ssweater1.jpg"",""stimuli\\STATE\\USED\\Ssweater2.jpg""]","stimuli\STATE\USED\Ssweater1.jpg","stimuli\STATE\USED\Ssweater1.jpg",""
"","1997","image-slider-response","370","2.0.0","541248","p920knkg1w3","trex","2","stimuli\STATE\USED\Ssweater1.jpg","","","","","","","","","","","3"
"","1798","html-button-response","371","2.0.0","543048","p920knkg1w3","trex","0","Which of these items did you see before?","","","","","Test","","true","[""stimuli\\STATE\\USED\\Sbooks1.JPG"",""stimuli\\STATE\\USED\\Sbooks2.JPG""]","stimuli\STATE\USED\Sbooks1.JPG","stimuli\STATE\USED\Sbooks1.JPG",""
"","2997","image-slider-response","372","2.0.0","546047","p920knkg1w3","trex","1","stimuli\STATE\USED\Sbooks1.JPG","","","","","","","","","","","3"
"","1631","html-button-response","373","2.0.0","547681","p920knkg1w3","trex","1","Which of these items did you see before?","","","","","Test","","true","[""stimuli\\STATE\\USED\\Scoffeemaker1.JPG"",""stimuli\\STATE\\USED\\Scoffeemaker2.JPG""]","stimuli\STATE\USED\Scoffeemaker2.JPG","stimuli\STATE\USED\Scoffeemaker2.JPG",""
"","1730","image-slider-response","374","2.0.0","549414","p920knkg1w3","trex","4","stimuli\STATE\USED\Scoffeemaker2.JPG","","","","","","","","","","","3"
"","7765","html-button-response","375","2.0.0","557181","p920knkg1w3","trex","1","Which of these items did you see before?","","","","","Test","","true","[""stimuli\\EXEMPLAR\\USED\\Ecamera1.jpg"",""stimuli\\EXEMPLAR\\USED\\Ecamera2.jpg""]","stimuli\EXEMPLAR\USED\Ecamera2.jpg","stimuli\EXEMPLAR\USED\Ecamera2.jpg",""
"","2297","image-slider-response","376","2.0.0","559481","p920knkg1w3","trex","2","stimuli\EXEMPLAR\USED\Ecamera2.jpg","","","","","","","","","","","3"
"","1898","html-button-response","377","2.0.0","561381","p920knkg1w3","trex","0","Which of these items did you see before?","","","","","Test","","true","[""stimuli\\EXEMPLAR\\USED\\Escroll2.jpg"",""stimuli\\EXEMPLAR\\USED\\Escroll1.jpg""]","stimuli\EXEMPLAR\USED\Escroll2.jpg","stimuli\EXEMPLAR\USED\Escroll2.jpg",""
"","2764","image-slider-response","378","2.0.0","564147","p920knkg1w3","trex","5","stimuli\EXEMPLAR\USED\Escroll2.jpg","","","","","","","","","","","3"
"","2265","html-button-response","379","2.0.0","566415","p920knkg1w3","trex","0","Which of these items did you see before?","","","","","Test","","true","[""stimuli\\STATE\\USED\\Sbook1.JPG"",""stimuli\\STATE\\USED\\Sbook2.JPG""]","stimuli\STATE\USED\Sbook1.JPG","stimuli\STATE\USED\Sbook1.JPG",""
"","1896","image-slider-response","380","2.0.0","568314","p920knkg1w3","trex","5","stimuli\STATE\USED\Sbook1.JPG","","","","","","","","","","","3"
"","2148","html-button-response","381","2.0.0","570463","p920knkg1w3","trex","0","Which of these items did you see before?","","","","","Test","","true","[""stimuli\\STATE\\USED\\Sgrinder2.jpg"",""stimuli\\STATE\\USED\\Sgrinder1.jpg""]","stimuli\STATE\USED\Sgrinder2.jpg","stimuli\STATE\USED\Sgrinder2.jpg",""
"","1798","image-slider-response","382","2.0.0","572264","p920knkg1w3","trex","4","stimuli\STATE\USED\Sgrinder2.jpg","","","","","","","","","","","3"
"","1115","html-button-response","383","2.0.0","573381","p920knkg1w3","trex","0","Which of these items did you see before?","","","","","Test","","true","[""stimuli\\EXEMPLAR\\USED\\Ebunny1.jpg"",""stimuli\\EXEMPLAR\\USED\\Ebunny2.jpg""]","stimuli\EXEMPLAR\USED\Ebunny1.jpg","stimuli\EXEMPLAR\USED\Ebunny1.jpg",""
"","1879","image-slider-response","384","2.0.0","575264","p920knkg1w3","trex","5","stimuli\EXEMPLAR\USED\Ebunny1.jpg","","","","","","","","","","","3"
"","965","html-button-response","385","2.0.0","576230","p920knkg1w3","trex","0","Which of these items did you see before?","","","","","Test","","true","[""stimuli\\EXEMPLAR\\USED\\Emoney1.jpg"",""stimuli\\EXEMPLAR\\USED\\Emoney2.jpg""]","stimuli\EXEMPLAR\USED\Emoney1.jpg","stimuli\EXEMPLAR\USED\Emoney1.jpg",""
"","1497","image-slider-response","386","2.0.0","577730","p920knkg1w3","trex","5","stimuli\EXEMPLAR\USED\Emoney1.jpg","","","","","","","","","","","3"
"","2065","html-button-response","387","2.0.0","579797","p920knkg1w3","trex","0","Which of these items did you see before?","","","","","Test","","true","[""stimuli\\STATE\\USED\\Scontainer2.JPG"",""stimuli\\STATE\\USED\\Scontainer1.JPG""]","stimuli\STATE\USED\Scontainer2.JPG","stimuli\STATE\USED\Scontainer2.JPG",""
"","1597","image-slider-response","388","2.0.0","581397","p920knkg1w3","trex","2","stimuli\STATE\USED\Scontainer2.JPG","","","","","","","","","","","3"
"","2581","html-button-response","389","2.0.0","583981","p920knkg1w3","trex","1","Which of these items did you see before?","","","","","Test","","true","[""stimuli\\EXEMPLAR\\USED\\Eteapot2.JPG"",""stimuli\\EXEMPLAR\\USED\\Eteapot1.JPG""]","stimuli\EXEMPLAR\USED\Eteapot1.JPG","stimuli\EXEMPLAR\USED\Eteapot1.JPG",""
"","2397","image-slider-response","390","2.0.0","586381","p920knkg1w3","trex","2","stimuli\EXEMPLAR\USED\Eteapot1.JPG","","","","","","","","","","","3"
"","5598","html-button-response","391","2.0.0","591980","p920knkg1w3","trex","0","Which of these items did you see before?","","","","","Test","","false","[""stimuli\\EXEMPLAR\\USED\\Ebonzai2.jpg"",""stimuli\\EXEMPLAR\\USED\\Ebonzai1.jpg""]","stimuli\EXEMPLAR\USED\Ebonzai1.jpg","stimuli\EXEMPLAR\USED\Ebonzai2.jpg",""
"","1797","image-slider-response","392","2.0.0","593780","p920knkg1w3","trex","2","stimuli\EXEMPLAR\USED\Ebonzai2.jpg","","","","","","","","","","","3"
"","2132","html-button-response","393","2.0.0","595914","p920knkg1w3","trex","0","Which of these items did you see before?","","","","","Test","","true","[""stimuli\\STATE\\USED\\Sscales1.jpg"",""stimuli\\STATE\\USED\\Sscales2.jpg""]","stimuli\STATE\USED\Sscales1.jpg","stimuli\STATE\USED\Sscales1.jpg",""
"","1746","image-slider-response","394","2.0.0","597664","p920knkg1w3","trex","4","stimuli\STATE\USED\Sscales1.jpg","","","","","","","","","","","3"
"","932","html-button-response","395","2.0.0","598598","p920knkg1w3","trex","0","Which of these items did you see before?","","","","","Test","","true","[""stimuli\\EXEMPLAR\\USED\\Ewineglass2.jpg"",""stimuli\\EXEMPLAR\\USED\\Ewineglass1.jpg""]","stimuli\EXEMPLAR\USED\Ewineglass2.jpg","stimuli\EXEMPLAR\USED\Ewineglass2.jpg",""
"","2281","image-slider-response","396","2.0.0","600881","p920knkg1w3","trex","5","stimuli\EXEMPLAR\USED\Ewineglass2.jpg","","","","","","","","","","","3"
"","1081","html-button-response","397","2.0.0","601964","p920knkg1w3","trex","1","Which of these items did you see before?","","","","","Test","","true","[""stimuli\\EXEMPLAR\\USED\\Espraybottle2.jpg"",""stimuli\\EXEMPLAR\\USED\\Espraybottle1.jpg""]","stimuli\EXEMPLAR\USED\Espraybottle1.jpg","stimuli\EXEMPLAR\USED\Espraybottle1.jpg",""
"","1630","image-slider-response","398","2.0.0","603597","p920knkg1w3","trex","5","stimuli\EXEMPLAR\USED\Espraybottle1.jpg","","","","","","","","","","","3"
"","1398","html-button-response","399","2.0.0","604997","p920knkg1w3","trex","1","Which of these items did you see before?","","","","","Test","","true","[""stimuli\\STATE\\USED\\Snapkins1.jpg"",""stimuli\\STATE\\USED\\Snapkins2.jpg""]","stimuli\STATE\USED\Snapkins2.jpg","stimuli\STATE\USED\Snapkins2.jpg",""
"","1363","image-slider-response","400","2.0.0","606364","p920knkg1w3","trex","5","stimuli\STATE\USED\Snapkins2.jpg","","","","","","","","","","","3"
"","898","html-button-response","401","2.0.0","607264","p920knkg1w3","trex","1","Which of these items did you see before?","","","","","Test","","true","[""stimuli\\EXEMPLAR\\USED\\Eremover2.jpg"",""stimuli\\EXEMPLAR\\USED\\Eremover1.jpg""]","stimuli\EXEMPLAR\USED\Eremover1.jpg","stimuli\EXEMPLAR\USED\Eremover1.jpg",""
"","2097","image-slider-response","402","2.0.0","609364","p920knkg1w3","trex","5","stimuli\EXEMPLAR\USED\Eremover1.jpg","","","","","","","","","","","3"
"","2664","html-button-response","403","2.0.0","612030","p920knkg1w3","trex","1","Which of these items did you see before?","","","","","Test","","true","[""stimuli\\STATE\\USED\\Saccordion2.jpg"",""stimuli\\STATE\\USED\\Saccordion1.jpg""]","stimuli\STATE\USED\Saccordion1.jpg","stimuli\STATE\USED\Saccordion1.jpg",""
"","1397","image-slider-response","404","2.0.0","613430","p920knkg1w3","trex","5","stimuli\STATE\USED\Saccordion1.jpg","","","","","","","","","","","3"
"","998","html-button-response","405","2.0.0","614430","p920knkg1w3","trex","0","Which of these items did you see before?","","","","","Test","","true","[""stimuli\\STATE\\USED\\Sseats2.jpg"",""stimuli\\STATE\\USED\\Sseats1.jpg""]","stimuli\STATE\USED\Sseats2.jpg","stimuli\STATE\USED\Sseats2.jpg",""
"","3180","image-slider-response","406","2.0.0","617614","p920knkg1w3","trex","4","stimuli\STATE\USED\Sseats2.jpg","","","","","","","","","","","3"
"","898","html-button-response","407","2.0.0","618513","p920knkg1w3","trex","0","Which of these items did you see before?","","","","","Test","","true","[""stimuli\\STATE\\USED\\Shandsign1.JPG"",""stimuli\\STATE\\USED\\Shandsign2.JPG""]","stimuli\STATE\USED\Shandsign1.JPG","stimuli\STATE\USED\Shandsign1.JPG",""
"","1614","image-slider-response","408","2.0.0","620130","p920knkg1w3","trex","5","stimuli\STATE\USED\Shandsign1.JPG","","","","","","","","","","","3"
"","1148","html-button-response","409","2.0.0","621281","p920knkg1w3","trex","1","Which of these items did you see before?","","","","","Test","","true","[""stimuli\\EXEMPLAR\\USED\\Emicroscope1.jpg"",""stimuli\\EXEMPLAR\\USED\\Emicroscope2.jpg""]","stimuli\EXEMPLAR\USED\Emicroscope2.jpg","stimuli\EXEMPLAR\USED\Emicroscope2.jpg",""
"","1696","image-slider-response","410","2.0.0","622980","p920knkg1w3","trex","5","stimuli\EXEMPLAR\USED\Emicroscope2.jpg","","","","","","","","","","","3"
"","2631","html-button-response","411","2.0.0","625614","p920knkg1w3","trex","1","Which of these items did you see before?","","","","","Test","","true","[""stimuli\\EXEMPLAR\\USED\\Etoyhand2.jpg"",""stimuli\\EXEMPLAR\\USED\\Etoyhand1.jpg""]","stimuli\EXEMPLAR\USED\Etoyhand1.jpg","stimuli\EXEMPLAR\USED\Etoyhand1.jpg",""
"","1963","image-slider-response","412","2.0.0","627580","p920knkg1w3","trex","5","stimuli\EXEMPLAR\USED\Etoyhand1.jpg","","","","","","","","","","","3"
"","1815","html-button-response","413","2.0.0","629397","p920knkg1w3","trex","0","Which of these items did you see before?","","","","","Test","","true","[""stimuli\\STATE\\USED\\Slaptop2.JPG"",""stimuli\\STATE\\USED\\Slaptop1.JPG""]","stimuli\STATE\USED\Slaptop2.JPG","stimuli\STATE\USED\Slaptop2.JPG",""
"","1746","image-slider-response","414","2.0.0","631146","p920knkg1w3","trex","4","stimuli\STATE\USED\Slaptop2.JPG","","","","","","","","","","","3"
"","1682","html-button-response","415","2.0.0","632830","p920knkg1w3","trex","1","Which of these items did you see before?","","","","","Test","","true","[""stimuli\\EXEMPLAR\\USED\\Erazor2.jpg"",""stimuli\\EXEMPLAR\\USED\\Erazor1.jpg""]","stimuli\EXEMPLAR\USED\Erazor1.jpg","stimuli\EXEMPLAR\USED\Erazor1.jpg",""
"","1431","image-slider-response","416","2.0.0","634264","p920knkg1w3","trex","5","stimuli\EXEMPLAR\USED\Erazor1.jpg","","","","","","","","","","","3"
"","831","html-button-response","417","2.0.0","635097","p920knkg1w3","trex","0","Which of these items did you see before?","","","","","Test","","true","[""stimuli\\STATE\\USED\\Sredcabbage1.jpg"",""stimuli\\STATE\\USED\\Sredcabbage2.jpg""]","stimuli\STATE\USED\Sredcabbage1.jpg","stimuli\STATE\USED\Sredcabbage1.jpg",""
"","1280","image-slider-response","418","2.0.0","636380","p920knkg1w3","trex","5","stimuli\STATE\USED\Sredcabbage1.jpg","","","","","","","","","","","3"
"","1648","html-button-response","419","2.0.0","638031","p920knkg1w3","trex","0","Which of these items did you see before?","","","","","Test","","false","[""stimuli\\STATE\\USED\\Sseatbelt1.jpg"",""stimuli\\STATE\\USED\\Sseatbelt2.jpg""]","stimuli\STATE\USED\Sseatbelt2.jpg","stimuli\STATE\USED\Sseatbelt1.jpg",""
"","2097","image-slider-response","420","2.0.0","640131","p920knkg1w3","trex","2","stimuli\STATE\USED\Sseatbelt1.jpg","","","","","","","","","","","3"
"","1431","html-button-response","421","2.0.0","641563","p920knkg1w3","trex","0","Which of these items did you see before?","","","","","Test","","true","[""stimuli\\EXEMPLAR\\USED\\Eremote1.jpg"",""stimuli\\EXEMPLAR\\USED\\Eremote2.jpg""]","stimuli\EXEMPLAR\USED\Eremote1.jpg","stimuli\EXEMPLAR\USED\Eremote1.jpg",""
"","2480","image-slider-response","422","2.0.0","644047","p920knkg1w3","trex","2","stimuli\EXEMPLAR\USED\Eremote1.jpg","","","","","","","","","","","3"
"","948","html-button-response","423","2.0.0","644997","p920knkg1w3","trex","0","Which of these items did you see before?","","","","","Test","","true","[""stimuli\\STATE\\USED\\Sskull1.jpg"",""stimuli\\STATE\\USED\\Sskull2.jpg""]","stimuli\STATE\USED\Sskull1.jpg","stimuli\STATE\USED\Sskull1.jpg",""
"","1630","image-slider-response","424","2.0.0","646630","p920knkg1w3","trex","5","stimuli\STATE\USED\Sskull1.jpg","","","","","","","","","","","3"
"","1247","html-button-response","425","2.0.0","647880","p920knkg1w3","trex","1","Which of these items did you see before?","","","","","Test","","true","[""stimuli\\STATE\\USED\\Sdrum2.jpg"",""stimuli\\STATE\\USED\\Sdrum1.jpg""]","stimuli\STATE\USED\Sdrum1.jpg","stimuli\STATE\USED\Sdrum1.jpg",""
"","1831","image-slider-response","426","2.0.0","649713","p920knkg1w3","trex","4","stimuli\STATE\USED\Sdrum1.jpg","","","","","","","","","","","3"
"","2348","html-button-response","427","2.0.0","652064","p920knkg1w3","trex","0","Which of these items did you see before?","","","","","Test","","true","[""stimuli\\EXEMPLAR\\USED\\Eturtle1.jpg"",""stimuli\\EXEMPLAR\\USED\\Eturtle2.jpg""]","stimuli\EXEMPLAR\USED\Eturtle1.jpg","stimuli\EXEMPLAR\USED\Eturtle1.jpg",""
"","1880","image-slider-response","428","2.0.0","653947","p920knkg1w3","trex","2","stimuli\EXEMPLAR\USED\Eturtle1.jpg","","","","","","","","","","","3"
"","1131","html-button-response","429","2.0.0","655080","p920knkg1w3","trex","1","Which of these items did you see before?","","","","","Test","","false","[""stimuli\\STATE\\USED\\Stypewriter1.jpg"",""stimuli\\STATE\\USED\\Stypewriter2.jpg""]","stimuli\STATE\USED\Stypewriter1.jpg","stimuli\STATE\USED\Stypewriter2.jpg",""
"","3379","image-slider-response","430","2.0.0","658463","p920knkg1w3","trex","3","stimuli\STATE\USED\Stypewriter2.jpg","","","","","","","","","","","3"
"","965","html-button-response","431","2.0.0","659430","p920knkg1w3","trex","0","Which of these items did you see before?","","","","","Test","","true","[""stimuli\\STATE\\USED\\Sdresser2.jpg"",""stimuli\\STATE\\USED\\Sdresser1.jpg""]","stimuli\STATE\USED\Sdresser2.jpg","stimuli\STATE\USED\Sdresser2.jpg",""
"","1698","image-slider-response","432","2.0.0","661130","p920knkg1w3","trex","5","stimuli\STATE\USED\Sdresser2.jpg","","","","","","","","","","","3"
"","1798","html-button-response","433","2.0.0","662930","p920knkg1w3","trex","0","Which of these items did you see before?","","","","","Test","","true","[""stimuli\\EXEMPLAR\\USED\\Edinosaur1.jpg"",""stimuli\\EXEMPLAR\\USED\\Edinosaur2.jpg""]","stimuli\EXEMPLAR\USED\Edinosaur1.jpg","stimuli\EXEMPLAR\USED\Edinosaur1.jpg",""
"","2014","image-slider-response","434","2.0.0","664946","p920knkg1w3","trex","2","stimuli\EXEMPLAR\USED\Edinosaur1.jpg","","","","","","","","","","","3"
"","2798","html-button-response","435","2.0.0","667747","p920knkg1w3","trex","0","Which of these items did you see before?","","","","","Test","","true","[""stimuli\\EXEMPLAR\\USED\\Eframe1.jpg"",""stimuli\\EXEMPLAR\\USED\\Eframe2.jpg""]","stimuli\EXEMPLAR\USED\Eframe1.jpg","stimuli\EXEMPLAR\USED\Eframe1.jpg",""
"","1797","image-slider-response","436","2.0.0","669547","p920knkg1w3","trex","2","stimuli\EXEMPLAR\USED\Eframe1.jpg","","","","","","","","","","","3"
"","1298","html-button-response","437","2.0.0","670847","p920knkg1w3","trex","0","Which of these items did you see before?","","","","","Test","","false","[""stimuli\\STATE\\USED\\Sphoneold1.jpg"",""stimuli\\STATE\\USED\\Sphoneold2.jpg""]","stimuli\STATE\USED\Sphoneold2.jpg","stimuli\STATE\USED\Sphoneold1.jpg",""
"","1997","image-slider-response","438","2.0.0","672847","p920knkg1w3","trex","2","stimuli\STATE\USED\Sphoneold1.jpg","","","","","","","","","","","3"
"","1264","html-button-response","439","2.0.0","674113","p920knkg1w3","trex","1","Which of these items did you see before?","","","","","Test","","true","[""stimuli\\EXEMPLAR\\USED\\Echocolatebar2.jpg"",""stimuli\\EXEMPLAR\\USED\\Echocolatebar1.jpg""]","stimuli\EXEMPLAR\USED\Echocolatebar1.jpg","stimuli\EXEMPLAR\USED\Echocolatebar1.jpg",""
"","1913","image-slider-response","440","2.0.0","676030","p920knkg1w3","trex","5","stimuli\EXEMPLAR\USED\Echocolatebar1.jpg","","","","","","","","","","","3"
"","1382","html-button-response","441","2.0.0","677414","p920knkg1w3","trex","1","Which of these items did you see before?","","","","","Test","","true","[""stimuli\\STATE\\USED\\Sclipboard2.jpg"",""stimuli\\STATE\\USED\\Sclipboard1.jpg""]","stimuli\STATE\USED\Sclipboard1.jpg","stimuli\STATE\USED\Sclipboard1.jpg",""
"","1697","image-slider-response","442","2.0.0","679114","p920knkg1w3","trex","2","stimuli\STATE\USED\Sclipboard1.jpg","","","","","","","","","","","3"
"","1781","html-button-response","443","2.0.0","680896","p920knkg1w3","trex","1","Which of these items did you see before?","","","","","Test","","false","[""stimuli\\EXEMPLAR\\USED\\Eladder1.jpg"",""stimuli\\EXEMPLAR\\USED\\Eladder2.jpg""]","stimuli\EXEMPLAR\USED\Eladder1.jpg","stimuli\EXEMPLAR\USED\Eladder2.jpg",""
"","1397","image-slider-response","444","2.0.0","682296","p920knkg1w3","trex","2","stimuli\EXEMPLAR\USED\Eladder2.jpg","","","","","","","","","","","3"
"","1914","html-button-response","445","2.0.0","684213","p920knkg1w3","trex","1","Which of these items did you see before?","","","","","Test","","true","[""stimuli\\STATE\\USED\\Sboxwhite2.jpg"",""stimuli\\STATE\\USED\\Sboxwhite1.jpg""]","stimuli\STATE\USED\Sboxwhite1.jpg","stimuli\STATE\USED\Sboxwhite1.jpg",""
"","1497","image-slider-response","446","2.0.0","685713","p920knkg1w3","trex","2","stimuli\STATE\USED\Sboxwhite1.jpg","","","","","","","","","","","3"
"","2448","html-button-response","447","2.0.0","688163","p920knkg1w3","trex","0","Which of these items did you see before?","","","","","Test","","true","[""stimuli\\EXEMPLAR\\USED\\Ecake2.jpg"",""stimuli\\EXEMPLAR\\USED\\Ecake1.jpg""]","stimuli\EXEMPLAR\USED\Ecake2.jpg","stimuli\EXEMPLAR\USED\Ecake2.jpg",""
"","3280","image-slider-response","448","2.0.0","691446","p920knkg1w3","trex","4","stimuli\EXEMPLAR\USED\Ecake2.jpg","","","","","","","","","","","3"
"","120870","survey-text","449","2.0.0","812332","p920knkg1w3","trex","{""experiment_purpose"":""individual's memory capacity "",""Q1"":""color, shapes"",""technical_issues"":""no""}","","","","","","","","","","","",""
