"success","rt","trial_type","trial_index","plugin_version","time_elapsed","random_id","participant","response","stimulus","timeout","failed_images","failed_audio","failed_video","trial_phase","repeated","correct","choice_images","correct_image","choice","slider_start"
"true","1181","fullscreen","0","2.0.0","2188","parq0lw64nk","lion","","","","","","","","","","","","",""
"","3021","survey-text","1","2.0.0","5217","parq0lw64nk","lion","{""participant_id"":""lion""}","","","","","","","","","","","",""
"","4806","html-keyboard-response","2","2.0.0","10024","parq0lw64nk","lion"," ","<p>Welcome to the Massive Memory Experiment. Press any key to move on. </p>","","","","","","","","","","",""
"","60111","html-keyboard-response","3","2.0.0","70134","parq0lw64nk","lion"," ","
      <div style='width:900px;margin: auto;'><p>In the first section you will see a stream of images, with fixation crosses in between each image.</p>
      <p>Each image will remain on screen for 2 seconds. Your job is to detect images that you have seen before within the experiment. Whenever you see an image that you have seen previously <b>at any point in the stream of images</b>, press the spacebar.</p>
      <p>We will let you know if you have correctly or falsely clicked the spacebar on an image by changing the color of the fixation cross.</p>
      <p>If you press the spacebar correctly (the image really did appear earlier), the fixation cross will turn green. If you pressed the spacebar incorrectly, the fixation cross will turn red.</p>
      <p>Please watch carefully to detect the images that show up again!</p>
      <p>Press any key to start.</p></div>
    ","","","","","","","","","","",""
"true","","preload","4","2.0.0","71251","parq0lw64nk","lion","","","false","[]","[]","[]","","","","","","",""
"","null","image-keyboard-response","5","2.0.0","73256","parq0lw64nk","lion","null","stimuli\EXEMPLAR\USED\Eremover2.jpg","","","","","Memory","false","null","","","",""
"","null","html-keyboard-response","6","2.0.0","73759","parq0lw64nk","lion","null","<div style=""font-size:60px; color: black;"">+</div>","","","","","","","","","","",""
"","null","image-keyboard-response","7","2.0.0","75763","parq0lw64nk","lion","null","stimuli\STATE\USED\Sdie2.jpg","","","","","Memory","false","null","","","",""
"","null","html-keyboard-response","8","2.0.0","76266","parq0lw64nk","lion","null","<div style=""font-size:60px; color: black;"">+</div>","","","","","","","","","","",""
"","null","image-keyboard-response","9","2.0.0","78271","parq0lw64nk","lion","null","stimuli\EXEMPLAR\USED\Elog2.jpg","","","","","Memory","false","null","","","",""
"","null","html-keyboard-response","10","2.0.0","78773","parq0lw64nk","lion","null","<div style=""font-size:60px; color: black;"">+</div>","","","","","","","","","","",""
"","null","image-keyboard-response","11","2.0.0","80777","parq0lw64nk","lion","null","stimuli\STATE\USED\Sscales2.jpg","","","","","Memory","false","null","","","",""
"","null","html-keyboard-response","12","2.0.0","81280","parq0lw64nk","lion","null","<div style=""font-size:60px; color: black;"">+</div>","","","","","","","","","","",""
"","null","image-keyboard-response","13","2.0.0","83284","parq0lw64nk","lion","null","stimuli\STATE\USED\Sjuiceglass1.JPG","","","","","Memory","false","null","","","",""
"","null","html-keyboard-response","14","2.0.0","83787","parq0lw64nk","lion","null","<div style=""font-size:60px; color: black;"">+</div>","","","","","","","","","","",""
"","null","image-keyboard-response","15","2.0.0","85791","parq0lw64nk","lion","null","stimuli\EXEMPLAR\USED\Etongs1.jpg","","","","","Memory","false","null","","","",""
"","null","html-keyboard-response","16","2.0.0","86294","parq0lw64nk","lion","null","<div style=""font-size:60px; color: black;"">+</div>","","","","","","","","","","",""
"","null","image-keyboard-response","17","2.0.0","88297","parq0lw64nk","lion","null","stimuli\EXEMPLAR\USED\Enozzle2.jpg","","","","","Memory","false","null","","","",""
"","null","html-keyboard-response","18","2.0.0","88799","parq0lw64nk","lion","null","<div style=""font-size:60px; color: black;"">+</div>","","","","","","","","","","",""
"","null","image-keyboard-response","19","2.0.0","90802","parq0lw64nk","lion","null","stimuli\EXEMPLAR\USED\Ecamera1.jpg","","","","","Memory","false","null","","","",""
"","null","html-keyboard-response","20","2.0.0","91305","parq0lw64nk","lion","null","<div style=""font-size:60px; color: black;"">+</div>","","","","","","","","","","",""
"","null","image-keyboard-response","21","2.0.0","93309","parq0lw64nk","lion","null","stimuli\EXEMPLAR\USED\Eswimsuit1.jpg","","","","","Memory","false","null","","","",""
"","null","html-keyboard-response","22","2.0.0","93812","parq0lw64nk","lion","null","<div style=""font-size:60px; color: black;"">+</div>","","","","","","","","","","",""
"","null","image-keyboard-response","23","2.0.0","95815","parq0lw64nk","lion","null","stimuli\STATE\USED\Sapplesgreenbasket2.jpg","","","","","Memory","false","null","","","",""
"","null","html-keyboard-response","24","2.0.0","96319","parq0lw64nk","lion","null","<div style=""font-size:60px; color: black;"">+</div>","","","","","","","","","","",""
"","1122","image-keyboard-response","25","2.0.0","98322","parq0lw64nk","lion"," ","stimuli\EXEMPLAR\USED\Enozzle2.jpg","","","","","Memory","true","true","","","",""
"","null","html-keyboard-response","26","2.0.0","98825","parq0lw64nk","lion","null","<div style=""font-size:60px; color: green;"">+</div>","","","","","","","","","","",""
"","null","image-keyboard-response","27","2.0.0","100828","parq0lw64nk","lion","null","stimuli\STATE\USED\Spumpkinpie2.jpg","","","","","Memory","false","null","","","",""
"","null","html-keyboard-response","28","2.0.0","101330","parq0lw64nk","lion","null","<div style=""font-size:60px; color: black;"">+</div>","","","","","","","","","","",""
"","null","image-keyboard-response","29","2.0.0","103333","parq0lw64nk","lion","null","stimuli\STATE\USED\Sskull2.jpg","","","","","Memory","false","null","","","",""
"","null","html-keyboard-response","30","2.0.0","103836","parq0lw64nk","lion","null","<div style=""font-size:60px; color: black;"">+</div>","","","","","","","","","","",""
"","null","image-keyboard-response","31","2.0.0","105838","parq0lw64nk","lion","null","stimuli\STATE\USED\Sgiftbag2.jpg","","","","","Memory","false","null","","","",""
"","null","html-keyboard-response","32","2.0.0","106340","parq0lw64nk","lion","null","<div style=""font-size:60px; color: black;"">+</div>","","","","","","","","","","",""
"","null","image-keyboard-response","33","2.0.0","108343","parq0lw64nk","lion","null","stimuli\EXEMPLAR\USED\Ewineglass1.jpg","","","","","Memory","false","null","","","",""
"","null","html-keyboard-response","34","2.0.0","108846","parq0lw64nk","lion","null","<div style=""font-size:60px; color: black;"">+</div>","","","","","","","","","","",""
"","null","image-keyboard-response","35","2.0.0","110849","parq0lw64nk","lion","null","stimuli\STATE\USED\Sscanner1.JPG","","","","","Memory","false","null","","","",""
"","null","html-keyboard-response","36","2.0.0","111352","parq0lw64nk","lion","null","<div style=""font-size:60px; color: black;"">+</div>","","","","","","","","","","",""
"","null","image-keyboard-response","37","2.0.0","113355","parq0lw64nk","lion","null","stimuli\EXEMPLAR\USED\Eframe2.jpg","","","","","Memory","false","null","","","",""
"","null","html-keyboard-response","38","2.0.0","113857","parq0lw64nk","lion","null","<div style=""font-size:60px; color: black;"">+</div>","","","","","","","","","","",""
"","null","image-keyboard-response","39","2.0.0","115860","parq0lw64nk","lion","null","stimuli\EXEMPLAR\USED\Ebunny2.jpg","","","","","Memory","false","null","","","",""
"","null","html-keyboard-response","40","2.0.0","116362","parq0lw64nk","lion","null","<div style=""font-size:60px; color: black;"">+</div>","","","","","","","","","","",""
"","null","image-keyboard-response","41","2.0.0","118365","parq0lw64nk","lion","null","stimuli\EXEMPLAR\USED\Elei1.jpg","","","","","Memory","false","null","","","",""
"","null","html-keyboard-response","42","2.0.0","118867","parq0lw64nk","lion","null","<div style=""font-size:60px; color: black;"">+</div>","","","","","","","","","","",""
"","null","image-keyboard-response","43","2.0.0","120869","parq0lw64nk","lion","null","stimuli\EXEMPLAR\USED\Etoykeys1.jpg","","","","","Memory","false","null","","","",""
"","null","html-keyboard-response","44","2.0.0","121372","parq0lw64nk","lion","null","<div style=""font-size:60px; color: black;"">+</div>","","","","","","","","","","",""
"","null","image-keyboard-response","45","2.0.0","123374","parq0lw64nk","lion","null","stimuli\STATE\USED\Sbrie2.JPG","","","","","Memory","false","null","","","",""
"","null","html-keyboard-response","46","2.0.0","123877","parq0lw64nk","lion","null","<div style=""font-size:60px; color: black;"">+</div>","","","","","","","","","","",""
"","null","image-keyboard-response","47","2.0.0","125880","parq0lw64nk","lion","null","stimuli\EXEMPLAR\USED\Ebread1.jpg","","","","","Memory","false","null","","","",""
"","null","html-keyboard-response","48","2.0.0","126383","parq0lw64nk","lion","null","<div style=""font-size:60px; color: black;"">+</div>","","","","","","","","","","",""
"","null","image-keyboard-response","49","2.0.0","128385","parq0lw64nk","lion","null","stimuli\EXEMPLAR\USED\Ecake2.jpg","","","","","Memory","false","null","","","",""
"","null","html-keyboard-response","50","2.0.0","128888","parq0lw64nk","lion","null","<div style=""font-size:60px; color: black;"">+</div>","","","","","","","","","","",""
"","null","image-keyboard-response","51","2.0.0","130891","parq0lw64nk","lion","null","stimuli\EXEMPLAR\USED\Etoywrench2.jpg","","","","","Memory","false","null","","","",""
"","null","html-keyboard-response","52","2.0.0","131393","parq0lw64nk","lion","null","<div style=""font-size:60px; color: black;"">+</div>","","","","","","","","","","",""
"","1099","image-keyboard-response","53","2.0.0","133396","parq0lw64nk","lion"," ","stimuli\STATE\USED\Sbrie2.JPG","","","","","Memory","true","true","","","",""
"","null","html-keyboard-response","54","2.0.0","133898","parq0lw64nk","lion","null","<div style=""font-size:60px; color: green;"">+</div>","","","","","","","","","","",""
"","null","image-keyboard-response","55","2.0.0","135901","parq0lw64nk","lion","null","stimuli\EXEMPLAR\USED\Ehoe2.jpg","","","","","Memory","false","null","","","",""
"","null","html-keyboard-response","56","2.0.0","136404","parq0lw64nk","lion","null","<div style=""font-size:60px; color: black;"">+</div>","","","","","","","","","","",""
"","null","image-keyboard-response","57","2.0.0","138407","parq0lw64nk","lion","null","stimuli\STATE\USED\Stypewriter2.jpg","","","","","Memory","false","null","","","",""
"","null","html-keyboard-response","58","2.0.0","138910","parq0lw64nk","lion","null","<div style=""font-size:60px; color: black;"">+</div>","","","","","","","","","","",""
"","null","image-keyboard-response","59","2.0.0","140912","parq0lw64nk","lion","null","stimuli\EXEMPLAR\USED\Eglobe1.jpg","","","","","Memory","false","null","","","",""
"","null","html-keyboard-response","60","2.0.0","141415","parq0lw64nk","lion","null","<div style=""font-size:60px; color: black;"">+</div>","","","","","","","","","","",""
"","null","image-keyboard-response","61","2.0.0","143418","parq0lw64nk","lion","null","stimuli\STATE\USED\Ssweater1.jpg","","","","","Memory","false","null","","","",""
"","null","html-keyboard-response","62","2.0.0","143920","parq0lw64nk","lion","null","<div style=""font-size:60px; color: black;"">+</div>","","","","","","","","","","",""
"","null","image-keyboard-response","63","2.0.0","145924","parq0lw64nk","lion","null","stimuli\STATE\USED\Sdoughhands1.jpg","","","","","Memory","false","null","","","",""
"","null","html-keyboard-response","64","2.0.0","146426","parq0lw64nk","lion","null","<div style=""font-size:60px; color: black;"">+</div>","","","","","","","","","","",""
"","null","image-keyboard-response","65","2.0.0","148430","parq0lw64nk","lion","null","stimuli\STATE\USED\Sbarnmailbox2.jpg","","","","","Memory","false","null","","","",""
"","null","html-keyboard-response","66","2.0.0","148931","parq0lw64nk","lion","null","<div style=""font-size:60px; color: black;"">+</div>","","","","","","","","","","",""
"","null","image-keyboard-response","67","2.0.0","150934","parq0lw64nk","lion","null","stimuli\EXEMPLAR\USED\Eplate2.jpg","","","","","Memory","false","null","","","",""
"","null","html-keyboard-response","68","2.0.0","151437","parq0lw64nk","lion","null","<div style=""font-size:60px; color: black;"">+</div>","","","","","","","","","","",""
"","null","image-keyboard-response","69","2.0.0","153439","parq0lw64nk","lion","null","stimuli\EXEMPLAR\USED\Ebonzai2.jpg","","","","","Memory","false","null","","","",""
"","null","html-keyboard-response","70","2.0.0","153941","parq0lw64nk","lion","null","<div style=""font-size:60px; color: black;"">+</div>","","","","","","","","","","",""
"","null","image-keyboard-response","71","2.0.0","155944","parq0lw64nk","lion","null","stimuli\STATE\USED\Spotpan1.JPG","","","","","Memory","false","null","","","",""
"","null","html-keyboard-response","72","2.0.0","156446","parq0lw64nk","lion","null","<div style=""font-size:60px; color: black;"">+</div>","","","","","","","","","","",""
"","877","image-keyboard-response","73","2.0.0","158450","parq0lw64nk","lion"," ","stimuli\STATE\USED\Sbarnmailbox2.jpg","","","","","Memory","true","true","","","",""
"","null","html-keyboard-response","74","2.0.0","158952","parq0lw64nk","lion","null","<div style=""font-size:60px; color: green;"">+</div>","","","","","","","","","","",""
"","null","image-keyboard-response","75","2.0.0","160954","parq0lw64nk","lion","null","stimuli\STATE\USED\Spadlock2.jpg","","","","","Memory","false","null","","","",""
"","null","html-keyboard-response","76","2.0.0","161457","parq0lw64nk","lion","null","<div style=""font-size:60px; color: black;"">+</div>","","","","","","","","","","",""
"","null","image-keyboard-response","77","2.0.0","163460","parq0lw64nk","lion","null","stimuli\EXEMPLAR\USED\Ewheelchair1.jpg","","","","","Memory","false","null","","","",""
"","null","html-keyboard-response","78","2.0.0","163962","parq0lw64nk","lion","null","<div style=""font-size:60px; color: black;"">+</div>","","","","","","","","","","",""
"","null","image-keyboard-response","79","2.0.0","165964","parq0lw64nk","lion","null","stimuli\STATE\USED\Sdonut1.jpg","","","","","Memory","false","null","","","",""
"","null","html-keyboard-response","80","2.0.0","166467","parq0lw64nk","lion","null","<div style=""font-size:60px; color: black;"">+</div>","","","","","","","","","","",""
"","null","image-keyboard-response","81","2.0.0","168469","parq0lw64nk","lion","null","stimuli\STATE\USED\Sschoolbag2.JPG","","","","","Memory","false","null","","","",""
"","null","html-keyboard-response","82","2.0.0","168971","parq0lw64nk","lion","null","<div style=""font-size:60px; color: black;"">+</div>","","","","","","","","","","",""
"","null","image-keyboard-response","83","2.0.0","170974","parq0lw64nk","lion","null","stimuli\STATE\USED\Shandshake2.JPG","","","","","Memory","false","null","","","",""
"","null","html-keyboard-response","84","2.0.0","171476","parq0lw64nk","lion","null","<div style=""font-size:60px; color: black;"">+</div>","","","","","","","","","","",""
"","1115","image-keyboard-response","85","2.0.0","173480","parq0lw64nk","lion"," ","stimuli\EXEMPLAR\USED\Ewheelchair1.jpg","","","","","Memory","true","true","","","",""
"","null","html-keyboard-response","86","2.0.0","173982","parq0lw64nk","lion","null","<div style=""font-size:60px; color: green;"">+</div>","","","","","","","","","","",""
"","null","image-keyboard-response","87","2.0.0","175985","parq0lw64nk","lion","null","stimuli\EXEMPLAR\USED\Edispenser1.jpg","","","","","Memory","false","null","","","",""
"","null","html-keyboard-response","88","2.0.0","176488","parq0lw64nk","lion","null","<div style=""font-size:60px; color: black;"">+</div>","","","","","","","","","","",""
"","null","image-keyboard-response","89","2.0.0","178491","parq0lw64nk","lion","null","stimuli\EXEMPLAR\USED\Efishbowl2.jpg","","","","","Memory","false","null","","","",""
"","null","html-keyboard-response","90","2.0.0","178994","parq0lw64nk","lion","null","<div style=""font-size:60px; color: black;"">+</div>","","","","","","","","","","",""
"","null","image-keyboard-response","91","2.0.0","181001","parq0lw64nk","lion","null","stimuli\STATE\USED\Slaptop1.JPG","","","","","Memory","false","null","","","",""
"","null","html-keyboard-response","92","2.0.0","181507","parq0lw64nk","lion","null","<div style=""font-size:60px; color: black;"">+</div>","","","","","","","","","","",""
"","null","image-keyboard-response","93","2.0.0","183510","parq0lw64nk","lion","null","stimuli\STATE\USED\Smedicaltape1.jpg","","","","","Memory","false","null","","","",""
"","null","html-keyboard-response","94","2.0.0","184013","parq0lw64nk","lion","null","<div style=""font-size:60px; color: black;"">+</div>","","","","","","","","","","",""
"","null","image-keyboard-response","95","2.0.0","186015","parq0lw64nk","lion","null","stimuli\STATE\USED\Saccordionsmall1.JPG","","","","","Memory","false","null","","","",""
"","null","html-keyboard-response","96","2.0.0","186518","parq0lw64nk","lion","null","<div style=""font-size:60px; color: black;"">+</div>","","","","","","","","","","",""
"","null","image-keyboard-response","97","2.0.0","188520","parq0lw64nk","lion","null","stimuli\STATE\USED\Sbooks2.JPG","","","","","Memory","false","null","","","",""
"","null","html-keyboard-response","98","2.0.0","189022","parq0lw64nk","lion","null","<div style=""font-size:60px; color: black;"">+</div>","","","","","","","","","","",""
"","null","image-keyboard-response","99","2.0.0","191025","parq0lw64nk","lion","null","stimuli\EXEMPLAR\USED\Escroll2.jpg","","","","","Memory","false","null","","","",""
"","null","html-keyboard-response","100","2.0.0","191527","parq0lw64nk","lion","null","<div style=""font-size:60px; color: black;"">+</div>","","","","","","","","","","",""
"","1239","image-keyboard-response","101","2.0.0","193531","parq0lw64nk","lion"," ","stimuli\STATE\USED\Smedicaltape1.jpg","","","","","Memory","true","true","","","",""
"","null","html-keyboard-response","102","2.0.0","194033","parq0lw64nk","lion","null","<div style=""font-size:60px; color: green;"">+</div>","","","","","","","","","","",""
"","null","image-keyboard-response","103","2.0.0","196036","parq0lw64nk","lion","null","stimuli\STATE\USED\Stiger1.jpg","","","","","Memory","false","null","","","",""
"","null","html-keyboard-response","104","2.0.0","196539","parq0lw64nk","lion","null","<div style=""font-size:60px; color: black;"">+</div>","","","","","","","","","","",""
"","null","image-keyboard-response","105","2.0.0","198543","parq0lw64nk","lion","null","stimuli\EXEMPLAR\USED\Eholepunch1.jpg","","","","","Memory","false","null","","","",""
"","null","html-keyboard-response","106","2.0.0","199045","parq0lw64nk","lion","null","<div style=""font-size:60px; color: black;"">+</div>","","","","","","","","","","",""
"","2636","html-button-response","107","2.0.0","201684","parq0lw64nk","lion","0","Are you still there?","","","","","Attention Check","","","","","",""
"","null","image-keyboard-response","108","2.0.0","203686","parq0lw64nk","lion","null","stimuli\EXEMPLAR\USED\Emicroscope1.jpg","","","","","Memory","false","null","","","",""
"","null","html-keyboard-response","109","2.0.0","204189","parq0lw64nk","lion","null","<div style=""font-size:60px; color: black;"">+</div>","","","","","","","","","","",""
"","null","image-keyboard-response","110","2.0.0","206192","parq0lw64nk","lion","null","stimuli\EXEMPLAR\USED\Efolder1.jpg","","","","","Memory","false","null","","","",""
"","null","html-keyboard-response","111","2.0.0","206694","parq0lw64nk","lion","null","<div style=""font-size:60px; color: black;"">+</div>","","","","","","","","","","",""
"","null","image-keyboard-response","112","2.0.0","208697","parq0lw64nk","lion","null","stimuli\STATE\USED\Swaffleiron1.jpg","","","","","Memory","false","null","","","",""
"","null","html-keyboard-response","113","2.0.0","209199","parq0lw64nk","lion","null","<div style=""font-size:60px; color: black;"">+</div>","","","","","","","","","","",""
"","null","image-keyboard-response","114","2.0.0","211203","parq0lw64nk","lion","null","stimuli\EXEMPLAR\USED\Edinosaur1.jpg","","","","","Memory","false","null","","","",""
"","null","html-keyboard-response","115","2.0.0","211706","parq0lw64nk","lion","null","<div style=""font-size:60px; color: black;"">+</div>","","","","","","","","","","",""
"","null","image-keyboard-response","116","2.0.0","213708","parq0lw64nk","lion","null","stimuli\STATE\USED\Sbreadslice1.jpg","","","","","Memory","false","null","","","",""
"","null","html-keyboard-response","117","2.0.0","214211","parq0lw64nk","lion","null","<div style=""font-size:60px; color: black;"">+</div>","","","","","","","","","","",""
"","934","image-keyboard-response","118","2.0.0","216214","parq0lw64nk","lion"," ","stimuli\EXEMPLAR\USED\Efolder1.jpg","","","","","Memory","true","true","","","",""
"","null","html-keyboard-response","119","2.0.0","216717","parq0lw64nk","lion","null","<div style=""font-size:60px; color: green;"">+</div>","","","","","","","","","","",""
"","null","image-keyboard-response","120","2.0.0","218720","parq0lw64nk","lion","null","stimuli\EXEMPLAR\USED\Ecalculator1.jpg","","","","","Memory","false","null","","","",""
"","null","html-keyboard-response","121","2.0.0","219222","parq0lw64nk","lion","null","<div style=""font-size:60px; color: black;"">+</div>","","","","","","","","","","",""
"","null","image-keyboard-response","122","2.0.0","221225","parq0lw64nk","lion","null","stimuli\EXEMPLAR\USED\Emitt1.jpg","","","","","Memory","false","null","","","",""
"","null","html-keyboard-response","123","2.0.0","221728","parq0lw64nk","lion","null","<div style=""font-size:60px; color: black;"">+</div>","","","","","","","","","","",""
"","null","image-keyboard-response","124","2.0.0","223730","parq0lw64nk","lion","null","stimuli\EXEMPLAR\USED\Echeeses1.jpg","","","","","Memory","false","null","","","",""
"","null","html-keyboard-response","125","2.0.0","224232","parq0lw64nk","lion","null","<div style=""font-size:60px; color: black;"">+</div>","","","","","","","","","","",""
"","null","image-keyboard-response","126","2.0.0","226236","parq0lw64nk","lion","null","stimuli\STATE\USED\Spiggybank2.jpg","","","","","Memory","false","null","","","",""
"","null","html-keyboard-response","127","2.0.0","226738","parq0lw64nk","lion","null","<div style=""font-size:60px; color: black;"">+</div>","","","","","","","","","","",""
"","null","image-keyboard-response","128","2.0.0","228741","parq0lw64nk","lion","null","stimuli\EXEMPLAR\USED\Ebrick1.jpg","","","","","Memory","false","null","","","",""
"","null","html-keyboard-response","129","2.0.0","229244","parq0lw64nk","lion","null","<div style=""font-size:60px; color: black;"">+</div>","","","","","","","","","","",""
"","null","image-keyboard-response","130","2.0.0","231247","parq0lw64nk","lion","null","stimuli\EXEMPLAR\USED\Etractor1.jpg","","","","","Memory","false","null","","","",""
"","null","html-keyboard-response","131","2.0.0","231750","parq0lw64nk","lion","null","<div style=""font-size:60px; color: black;"">+</div>","","","","","","","","","","",""
"","null","image-keyboard-response","132","2.0.0","233753","parq0lw64nk","lion","null","stimuli\STATE\USED\Sdrum1.jpg","","","","","Memory","false","null","","","",""
"","null","html-keyboard-response","133","2.0.0","234256","parq0lw64nk","lion","null","<div style=""font-size:60px; color: black;"">+</div>","","","","","","","","","","",""
"","null","image-keyboard-response","134","2.0.0","236258","parq0lw64nk","lion","null","stimuli\EXEMPLAR\USED\Esantahat1.jpg","","","","","Memory","false","null","","","",""
"","null","html-keyboard-response","135","2.0.0","236761","parq0lw64nk","lion","null","<div style=""font-size:60px; color: black;"">+</div>","","","","","","","","","","",""
"","null","image-keyboard-response","136","2.0.0","238765","parq0lw64nk","lion","null","stimuli\EXEMPLAR\USED\Econe1.jpg","","","","","Memory","false","null","","","",""
"","null","html-keyboard-response","137","2.0.0","239267","parq0lw64nk","lion","null","<div style=""font-size:60px; color: black;"">+</div>","","","","","","","","","","",""
"","null","image-keyboard-response","138","2.0.0","241272","parq0lw64nk","lion","null","stimuli\STATE\USED\Sdryer1.jpg","","","","","Memory","false","null","","","",""
"","null","html-keyboard-response","139","2.0.0","241775","parq0lw64nk","lion","null","<div style=""font-size:60px; color: black;"">+</div>","","","","","","","","","","",""
"","null","image-keyboard-response","140","2.0.0","243778","parq0lw64nk","lion","null","stimuli\STATE\USED\Sstoplight2.jpg","","","","","Memory","false","null","","","",""
"","null","html-keyboard-response","141","2.0.0","244281","parq0lw64nk","lion","null","<div style=""font-size:60px; color: black;"">+</div>","","","","","","","","","","",""
"","null","image-keyboard-response","142","2.0.0","246284","parq0lw64nk","lion","null","stimuli\STATE\USED\Sbriefcasemetal1.JPG","","","","","Memory","false","null","","","",""
"","null","html-keyboard-response","143","2.0.0","246785","parq0lw64nk","lion","null","<div style=""font-size:60px; color: black;"">+</div>","","","","","","","","","","",""
"","1288","image-keyboard-response","144","2.0.0","248788","parq0lw64nk","lion"," ","stimuli\EXEMPLAR\USED\Econe1.jpg","","","","","Memory","true","true","","","",""
"","null","html-keyboard-response","145","2.0.0","249291","parq0lw64nk","lion","null","<div style=""font-size:60px; color: green;"">+</div>","","","","","","","","","","",""
"","null","image-keyboard-response","146","2.0.0","251294","parq0lw64nk","lion","null","stimuli\EXEMPLAR\USED\Echocolatebar1.jpg","","","","","Memory","false","null","","","",""
"","null","html-keyboard-response","147","2.0.0","251797","parq0lw64nk","lion","null","<div style=""font-size:60px; color: black;"">+</div>","","","","","","","","","","",""
"","null","image-keyboard-response","148","2.0.0","253800","parq0lw64nk","lion","null","stimuli\EXEMPLAR\USED\Earch2.jpg","","","","","Memory","false","null","","","",""
"","null","html-keyboard-response","149","2.0.0","254303","parq0lw64nk","lion","null","<div style=""font-size:60px; color: black;"">+</div>","","","","","","","","","","",""
"","null","image-keyboard-response","150","2.0.0","256306","parq0lw64nk","lion","null","stimuli\EXEMPLAR\USED\Ebell2.jpg","","","","","Memory","false","null","","","",""
"","null","html-keyboard-response","151","2.0.0","256808","parq0lw64nk","lion","null","<div style=""font-size:60px; color: black;"">+</div>","","","","","","","","","","",""
"","1431","image-keyboard-response","152","2.0.0","258811","parq0lw64nk","lion"," ","stimuli\STATE\USED\Scateringtray2.jpg","","","","","Memory","false","false","","","",""
"","null","html-keyboard-response","153","2.0.0","259313","parq0lw64nk","lion","null","<div style=""font-size:60px; color: red;"">+</div>","","","","","","","","","","",""
"","null","image-keyboard-response","154","2.0.0","261316","parq0lw64nk","lion","null","stimuli\STATE\USED\Sbrushes2.jpg","","","","","Memory","false","null","","","",""
"","null","html-keyboard-response","155","2.0.0","261819","parq0lw64nk","lion","null","<div style=""font-size:60px; color: black;"">+</div>","","","","","","","","","","",""
"","null","image-keyboard-response","156","2.0.0","263822","parq0lw64nk","lion","null","stimuli\EXEMPLAR\USED\Eguitar1.jpg","","","","","Memory","false","null","","","",""
"","null","html-keyboard-response","157","2.0.0","264324","parq0lw64nk","lion","null","<div style=""font-size:60px; color: black;"">+</div>","","","","","","","","","","",""
"","null","image-keyboard-response","158","2.0.0","266327","parq0lw64nk","lion","null","stimuli\STATE\USED\Srhino1.jpg","","","","","Memory","false","null","","","",""
"","null","html-keyboard-response","159","2.0.0","266829","parq0lw64nk","lion","null","<div style=""font-size:60px; color: black;"">+</div>","","","","","","","","","","",""
"","null","image-keyboard-response","160","2.0.0","268835","parq0lw64nk","lion","null","stimuli\STATE\USED\Smetronome1.jpg","","","","","Memory","false","null","","","",""
"","null","html-keyboard-response","161","2.0.0","269337","parq0lw64nk","lion","null","<div style=""font-size:60px; color: black;"">+</div>","","","","","","","","","","",""
"","null","image-keyboard-response","162","2.0.0","271340","parq0lw64nk","lion","null","stimuli\STATE\USED\Seggplant1.jpg","","","","","Memory","false","null","","","",""
"","null","html-keyboard-response","163","2.0.0","271842","parq0lw64nk","lion","null","<div style=""font-size:60px; color: black;"">+</div>","","","","","","","","","","",""
"","null","image-keyboard-response","164","2.0.0","273844","parq0lw64nk","lion","null","stimuli\EXEMPLAR\USED\Ekayak1.jpg","","","","","Memory","false","null","","","",""
"","null","html-keyboard-response","165","2.0.0","274347","parq0lw64nk","lion","null","<div style=""font-size:60px; color: black;"">+</div>","","","","","","","","","","",""
"","892","image-keyboard-response","166","2.0.0","276351","parq0lw64nk","lion"," ","stimuli\STATE\USED\Srhino1.jpg","","","","","Memory","true","true","","","",""
"","null","html-keyboard-response","167","2.0.0","276853","parq0lw64nk","lion","null","<div style=""font-size:60px; color: green;"">+</div>","","","","","","","","","","",""
"","null","image-keyboard-response","168","2.0.0","278856","parq0lw64nk","lion","null","stimuli\EXEMPLAR\USED\Ebracelet1.jpg","","","","","Memory","false","null","","","",""
"","null","html-keyboard-response","169","2.0.0","279358","parq0lw64nk","lion","null","<div style=""font-size:60px; color: black;"">+</div>","","","","","","","","","","",""
"","null","image-keyboard-response","170","2.0.0","281360","parq0lw64nk","lion","null","stimuli\EXEMPLAR\USED\Epeppers1.jpg","","","","","Memory","false","null","","","",""
"","null","html-keyboard-response","171","2.0.0","281863","parq0lw64nk","lion","null","<div style=""font-size:60px; color: black;"">+</div>","","","","","","","","","","",""
"","null","image-keyboard-response","172","2.0.0","283866","parq0lw64nk","lion","null","stimuli\STATE\USED\Sscissors1.JPG","","","","","Memory","false","null","","","",""
"","null","html-keyboard-response","173","2.0.0","284369","parq0lw64nk","lion","null","<div style=""font-size:60px; color: black;"">+</div>","","","","","","","","","","",""
"","null","image-keyboard-response","174","2.0.0","286371","parq0lw64nk","lion","null","stimuli\STATE\USED\Sdishes2.JPG","","","","","Memory","false","null","","","",""
"","null","html-keyboard-response","175","2.0.0","286873","parq0lw64nk","lion","null","<div style=""font-size:60px; color: black;"">+</div>","","","","","","","","","","",""
"","null","image-keyboard-response","176","2.0.0","288874","parq0lw64nk","lion","null","stimuli\EXEMPLAR\USED\Emoney1.jpg","","","","","Memory","false","null","","","",""
"","null","html-keyboard-response","177","2.0.0","289377","parq0lw64nk","lion","null","<div style=""font-size:60px; color: black;"">+</div>","","","","","","","","","","",""
"","null","image-keyboard-response","178","2.0.0","291380","parq0lw64nk","lion","null","stimuli\STATE\USED\Sclipboard2.jpg","","","","","Memory","false","null","","","",""
"","null","html-keyboard-response","179","2.0.0","291882","parq0lw64nk","lion","null","<div style=""font-size:60px; color: black;"">+</div>","","","","","","","","","","",""
"","null","image-keyboard-response","180","2.0.0","293885","parq0lw64nk","lion","null","stimuli\STATE\USED\Sbox1.jpg","","","","","Memory","false","null","","","",""
"","null","html-keyboard-response","181","2.0.0","294387","parq0lw64nk","lion","null","<div style=""font-size:60px; color: black;"">+</div>","","","","","","","","","","",""
"","951","image-keyboard-response","182","2.0.0","296390","parq0lw64nk","lion"," ","stimuli\STATE\USED\Sdishes2.JPG","","","","","Memory","true","true","","","",""
"","null","html-keyboard-response","183","2.0.0","296892","parq0lw64nk","lion","null","<div style=""font-size:60px; color: green;"">+</div>","","","","","","","","","","",""
"","null","image-keyboard-response","184","2.0.0","298894","parq0lw64nk","lion","null","stimuli\EXEMPLAR\USED\Etrophy1.jpg","","","","","Memory","false","null","","","",""
"","null","html-keyboard-response","185","2.0.0","299397","parq0lw64nk","lion","null","<div style=""font-size:60px; color: black;"">+</div>","","","","","","","","","","",""
"","null","image-keyboard-response","186","2.0.0","301402","parq0lw64nk","lion","null","stimuli\STATE\USED\Sboxwhite2.jpg","","","","","Memory","false","null","","","",""
"","null","html-keyboard-response","187","2.0.0","301913","parq0lw64nk","lion","null","<div style=""font-size:60px; color: black;"">+</div>","","","","","","","","","","",""
"","1452","image-keyboard-response","188","2.0.0","303915","parq0lw64nk","lion"," ","stimuli\EXEMPLAR\USED\Ebinoculars1.jpg","","","","","Memory","false","false","","","",""
"","null","html-keyboard-response","189","2.0.0","304418","parq0lw64nk","lion","null","<div style=""font-size:60px; color: red;"">+</div>","","","","","","","","","","",""
"","null","image-keyboard-response","190","2.0.0","306421","parq0lw64nk","lion","null","stimuli\EXEMPLAR\USED\Echopsticks1.jpg","","","","","Memory","false","null","","","",""
"","null","html-keyboard-response","191","2.0.0","306923","parq0lw64nk","lion","null","<div style=""font-size:60px; color: black;"">+</div>","","","","","","","","","","",""
"","null","image-keyboard-response","192","2.0.0","308927","parq0lw64nk","lion","null","stimuli\EXEMPLAR\USED\Epliers2.jpg","","","","","Memory","false","null","","","",""
"","null","html-keyboard-response","193","2.0.0","309429","parq0lw64nk","lion","null","<div style=""font-size:60px; color: black;"">+</div>","","","","","","","","","","",""
"","null","image-keyboard-response","194","2.0.0","311432","parq0lw64nk","lion","null","stimuli\STATE\USED\Sgiftbox2.jpg","","","","","Memory","false","null","","","",""
"","null","html-keyboard-response","195","2.0.0","311935","parq0lw64nk","lion","null","<div style=""font-size:60px; color: black;"">+</div>","","","","","","","","","","",""
"","1190","image-keyboard-response","196","2.0.0","313938","parq0lw64nk","lion"," ","stimuli\EXEMPLAR\USED\Ebinoculars1.jpg","","","","","Memory","true","true","","","",""
"","null","html-keyboard-response","197","2.0.0","314441","parq0lw64nk","lion","null","<div style=""font-size:60px; color: green;"">+</div>","","","","","","","","","","",""
"","null","image-keyboard-response","198","2.0.0","316443","parq0lw64nk","lion","null","stimuli\EXEMPLAR\USED\Eremote2.jpg","","","","","Memory","false","null","","","",""
"","null","html-keyboard-response","199","2.0.0","316946","parq0lw64nk","lion","null","<div style=""font-size:60px; color: black;"">+</div>","","","","","","","","","","",""
"","null","image-keyboard-response","200","2.0.0","318949","parq0lw64nk","lion","null","stimuli\STATE\USED\Spie2.JPG","","","","","Memory","false","null","","","",""
"","null","html-keyboard-response","201","2.0.0","319451","parq0lw64nk","lion","null","<div style=""font-size:60px; color: black;"">+</div>","","","","","","","","","","",""
"","null","image-keyboard-response","202","2.0.0","321453","parq0lw64nk","lion","null","stimuli\EXEMPLAR\USED\Emedal1.jpg","","","","","Memory","false","null","","","",""
"","null","html-keyboard-response","203","2.0.0","321956","parq0lw64nk","lion","null","<div style=""font-size:60px; color: black;"">+</div>","","","","","","","","","","",""
"","null","image-keyboard-response","204","2.0.0","323959","parq0lw64nk","lion","null","stimuli\EXEMPLAR\USED\Eturtle2.jpg","","","","","Memory","false","null","","","",""
"","null","html-keyboard-response","205","2.0.0","324462","parq0lw64nk","lion","null","<div style=""font-size:60px; color: black;"">+</div>","","","","","","","","","","",""
"","null","image-keyboard-response","206","2.0.0","326464","parq0lw64nk","lion","null","stimuli\EXEMPLAR\USED\Eicecream2.jpg","","","","","Memory","false","null","","","",""
"","null","html-keyboard-response","207","2.0.0","326967","parq0lw64nk","lion","null","<div style=""font-size:60px; color: black;"">+</div>","","","","","","","","","","",""
"","null","image-keyboard-response","208","2.0.0","328970","parq0lw64nk","lion","null","stimuli\STATE\USED\Scoffeemaker1.JPG","","","","","Memory","false","null","","","",""
"","null","html-keyboard-response","209","2.0.0","329473","parq0lw64nk","lion","null","<div style=""font-size:60px; color: black;"">+</div>","","","","","","","","","","",""
"","1993","html-button-response","210","2.0.0","331468","parq0lw64nk","lion","0","Are you still there?","","","","","Attention Check","","","","","",""
"","912","image-keyboard-response","211","2.0.0","333471","parq0lw64nk","lion"," ","stimuli\EXEMPLAR\USED\Emedal1.jpg","","","","","Memory","true","true","","","",""
"","null","html-keyboard-response","212","2.0.0","333974","parq0lw64nk","lion","null","<div style=""font-size:60px; color: green;"">+</div>","","","","","","","","","","",""
"","null","image-keyboard-response","213","2.0.0","335977","parq0lw64nk","lion","null","stimuli\EXEMPLAR\USED\Esunglasses2.jpg","","","","","Memory","false","null","","","",""
"","null","html-keyboard-response","214","2.0.0","336479","parq0lw64nk","lion","null","<div style=""font-size:60px; color: black;"">+</div>","","","","","","","","","","",""
"","null","image-keyboard-response","215","2.0.0","338481","parq0lw64nk","lion","null","stimuli\EXEMPLAR\USED\Esuitcase1.jpg","","","","","Memory","false","null","","","",""
"","null","html-keyboard-response","216","2.0.0","338983","parq0lw64nk","lion","null","<div style=""font-size:60px; color: black;"">+</div>","","","","","","","","","","",""
"","null","image-keyboard-response","217","2.0.0","340986","parq0lw64nk","lion","null","stimuli\STATE\USED\Sseatbelt1.jpg","","","","","Memory","false","null","","","",""
"","null","html-keyboard-response","218","2.0.0","341489","parq0lw64nk","lion","null","<div style=""font-size:60px; color: black;"">+</div>","","","","","","","","","","",""
"","null","image-keyboard-response","219","2.0.0","343492","parq0lw64nk","lion","null","stimuli\STATE\USED\Shairbrush1.jpg","","","","","Memory","false","null","","","",""
"","null","html-keyboard-response","220","2.0.0","343994","parq0lw64nk","lion","null","<div style=""font-size:60px; color: black;"">+</div>","","","","","","","","","","",""
"","null","image-keyboard-response","221","2.0.0","345997","parq0lw64nk","lion","null","stimuli\EXEMPLAR\USED\Estarfish2.jpg","","","","","Memory","false","null","","","",""
"","null","html-keyboard-response","222","2.0.0","346499","parq0lw64nk","lion","null","<div style=""font-size:60px; color: black;"">+</div>","","","","","","","","","","",""
"","1344","image-keyboard-response","223","2.0.0","348503","parq0lw64nk","lion"," ","stimuli\EXEMPLAR\USED\Esuitcase1.jpg","","","","","Memory","true","true","","","",""
"","null","html-keyboard-response","224","2.0.0","349005","parq0lw64nk","lion","null","<div style=""font-size:60px; color: green;"">+</div>","","","","","","","","","","",""
"","null","image-keyboard-response","225","2.0.0","351007","parq0lw64nk","lion","null","stimuli\STATE\USED\Sdishwasher2.jpg","","","","","Memory","false","null","","","",""
"","null","html-keyboard-response","226","2.0.0","351510","parq0lw64nk","lion","null","<div style=""font-size:60px; color: black;"">+</div>","","","","","","","","","","",""
"","null","image-keyboard-response","227","2.0.0","353513","parq0lw64nk","lion","null","stimuli\STATE\USED\Speppers2.jpg","","","","","Memory","false","null","","","",""
"","null","html-keyboard-response","228","2.0.0","354016","parq0lw64nk","lion","null","<div style=""font-size:60px; color: black;"">+</div>","","","","","","","","","","",""
"","null","image-keyboard-response","229","2.0.0","356019","parq0lw64nk","lion","null","stimuli\EXEMPLAR\USED\Epiano1.jpg","","","","","Memory","false","null","","","",""
"","null","html-keyboard-response","230","2.0.0","356522","parq0lw64nk","lion","null","<div style=""font-size:60px; color: black;"">+</div>","","","","","","","","","","",""
"","null","image-keyboard-response","231","2.0.0","358524","parq0lw64nk","lion","null","stimuli\EXEMPLAR\USED\Ehelmet1.jpg","","","","","Memory","false","null","","","",""
"","null","html-keyboard-response","232","2.0.0","359027","parq0lw64nk","lion","null","<div style=""font-size:60px; color: black;"">+</div>","","","","","","","","","","",""
"","1590","image-keyboard-response","233","2.0.0","361030","parq0lw64nk","lion"," ","stimuli\STATE\USED\Sdishwasher2.jpg","","","","","Memory","true","true","","","",""
"","null","html-keyboard-response","234","2.0.0","361532","parq0lw64nk","lion","null","<div style=""font-size:60px; color: green;"">+</div>","","","","","","","","","","",""
"","null","image-keyboard-response","235","2.0.0","363535","parq0lw64nk","lion","null","stimuli\EXEMPLAR\USED\Erabbit2.jpg","","","","","Memory","false","null","","","",""
"","null","html-keyboard-response","236","2.0.0","364038","parq0lw64nk","lion","null","<div style=""font-size:60px; color: black;"">+</div>","","","","","","","","","","",""
"","null","image-keyboard-response","237","2.0.0","366040","parq0lw64nk","lion","null","stimuli\STATE\USED\Shandsign1.JPG","","","","","Memory","false","null","","","",""
"","null","html-keyboard-response","238","2.0.0","366543","parq0lw64nk","lion","null","<div style=""font-size:60px; color: black;"">+</div>","","","","","","","","","","",""
"","null","image-keyboard-response","239","2.0.0","368547","parq0lw64nk","lion","null","stimuli\STATE\USED\Spolarbear2.jpg","","","","","Memory","false","null","","","",""
"","null","html-keyboard-response","240","2.0.0","369049","parq0lw64nk","lion","null","<div style=""font-size:60px; color: black;"">+</div>","","","","","","","","","","",""
"","null","image-keyboard-response","241","2.0.0","371052","parq0lw64nk","lion","null","stimuli\STATE\USED\Srainbowslice1.jpg","","","","","Memory","false","null","","","",""
"","null","html-keyboard-response","242","2.0.0","371555","parq0lw64nk","lion","null","<div style=""font-size:60px; color: black;"">+</div>","","","","","","","","","","",""
"","1223","image-keyboard-response","243","2.0.0","373559","parq0lw64nk","lion"," ","stimuli\EXEMPLAR\USED\Erabbit2.jpg","","","","","Memory","true","true","","","",""
"","null","html-keyboard-response","244","2.0.0","374062","parq0lw64nk","lion","null","<div style=""font-size:60px; color: green;"">+</div>","","","","","","","","","","",""
"","null","image-keyboard-response","245","2.0.0","376064","parq0lw64nk","lion","null","stimuli\EXEMPLAR\USED\Epotatochips1.jpg","","","","","Memory","false","null","","","",""
"","null","html-keyboard-response","246","2.0.0","376566","parq0lw64nk","lion","null","<div style=""font-size:60px; color: black;"">+</div>","","","","","","","","","","",""
"","null","image-keyboard-response","247","2.0.0","378569","parq0lw64nk","lion","null","stimuli\EXEMPLAR\USED\Egame2.jpg","","","","","Memory","false","null","","","",""
"","null","html-keyboard-response","248","2.0.0","379073","parq0lw64nk","lion","null","<div style=""font-size:60px; color: black;"">+</div>","","","","","","","","","","",""
"","null","image-keyboard-response","249","2.0.0","381076","parq0lw64nk","lion","null","stimuli\STATE\USED\Sumbrella2.jpg","","","","","Memory","false","null","","","",""
"","null","html-keyboard-response","250","2.0.0","381579","parq0lw64nk","lion","null","<div style=""font-size:60px; color: black;"">+</div>","","","","","","","","","","",""
"","null","image-keyboard-response","251","2.0.0","383583","parq0lw64nk","lion","null","stimuli\STATE\USED\Siron1.jpg","","","","","Memory","false","null","","","",""
"","null","html-keyboard-response","252","2.0.0","384086","parq0lw64nk","lion","null","<div style=""font-size:60px; color: black;"">+</div>","","","","","","","","","","",""
"","1469","image-keyboard-response","253","2.0.0","386090","parq0lw64nk","lion"," ","stimuli\EXEMPLAR\USED\Epotatochips1.jpg","","","","","Memory","true","true","","","",""
"","null","html-keyboard-response","254","2.0.0","386593","parq0lw64nk","lion","null","<div style=""font-size:60px; color: green;"">+</div>","","","","","","","","","","",""
"","null","image-keyboard-response","255","2.0.0","388596","parq0lw64nk","lion","null","stimuli\EXEMPLAR\USED\Etrowel1.jpg","","","","","Memory","false","null","","","",""
"","null","html-keyboard-response","256","2.0.0","389099","parq0lw64nk","lion","null","<div style=""font-size:60px; color: black;"">+</div>","","","","","","","","","","",""
"","null","image-keyboard-response","257","2.0.0","391102","parq0lw64nk","lion","null","stimuli\STATE\USED\Spestle2.jpg","","","","","Memory","false","null","","","",""
"","null","html-keyboard-response","258","2.0.0","391604","parq0lw64nk","lion","null","<div style=""font-size:60px; color: black;"">+</div>","","","","","","","","","","",""
"","null","image-keyboard-response","259","2.0.0","393606","parq0lw64nk","lion","null","stimuli\EXEMPLAR\USED\Eteapot2.JPG","","","","","Memory","false","null","","","",""
"","null","html-keyboard-response","260","2.0.0","394109","parq0lw64nk","lion","null","<div style=""font-size:60px; color: black;"">+</div>","","","","","","","","","","",""
"","null","image-keyboard-response","261","2.0.0","396111","parq0lw64nk","lion","null","stimuli\EXEMPLAR\USED\Eelectricbass2.jpg","","","","","Memory","false","null","","","",""
"","null","html-keyboard-response","262","2.0.0","396616","parq0lw64nk","lion","null","<div style=""font-size:60px; color: black;"">+</div>","","","","","","","","","","",""
"","null","image-keyboard-response","263","2.0.0","398618","parq0lw64nk","lion","null","stimuli\STATE\USED\Saccordion1.jpg","","","","","Memory","false","null","","","",""
"","null","html-keyboard-response","264","2.0.0","399122","parq0lw64nk","lion","null","<div style=""font-size:60px; color: black;"">+</div>","","","","","","","","","","",""
"","null","image-keyboard-response","265","2.0.0","401125","parq0lw64nk","lion","null","stimuli\STATE\USED\Sapplesredbasket2.JPG","","","","","Memory","false","null","","","",""
"","null","html-keyboard-response","266","2.0.0","401627","parq0lw64nk","lion","null","<div style=""font-size:60px; color: black;"">+</div>","","","","","","","","","","",""
"","null","image-keyboard-response","267","2.0.0","403630","parq0lw64nk","lion","null","stimuli\STATE\USED\Sredcabbage2.jpg","","","","","Memory","false","null","","","",""
"","null","html-keyboard-response","268","2.0.0","404133","parq0lw64nk","lion","null","<div style=""font-size:60px; color: black;"">+</div>","","","","","","","","","","",""
"","null","image-keyboard-response","269","2.0.0","406135","parq0lw64nk","lion","null","stimuli\EXEMPLAR\USED\Ehorn1.jpg","","","","","Memory","false","null","","","",""
"","null","html-keyboard-response","270","2.0.0","406638","parq0lw64nk","lion","null","<div style=""font-size:60px; color: black;"">+</div>","","","","","","","","","","",""
"","1033","image-keyboard-response","271","2.0.0","408642","parq0lw64nk","lion"," ","stimuli\STATE\USED\Saccordion1.jpg","","","","","Memory","true","true","","","",""
"","null","html-keyboard-response","272","2.0.0","409145","parq0lw64nk","lion","null","<div style=""font-size:60px; color: green;"">+</div>","","","","","","","","","","",""
"","null","image-keyboard-response","273","2.0.0","411148","parq0lw64nk","lion","null","stimuli\EXEMPLAR\USED\Eheadphones2.jpg","","","","","Memory","false","null","","","",""
"","null","html-keyboard-response","274","2.0.0","411651","parq0lw64nk","lion","null","<div style=""font-size:60px; color: black;"">+</div>","","","","","","","","","","",""
"","null","image-keyboard-response","275","2.0.0","413653","parq0lw64nk","lion","null","stimuli\STATE\USED\Snapkins1.jpg","","","","","Memory","false","null","","","",""
"","null","html-keyboard-response","276","2.0.0","414156","parq0lw64nk","lion","null","<div style=""font-size:60px; color: black;"">+</div>","","","","","","","","","","",""
"","null","image-keyboard-response","277","2.0.0","416159","parq0lw64nk","lion","null","stimuli\STATE\USED\Sgrinder1.jpg","","","","","Memory","false","null","","","",""
"","null","html-keyboard-response","278","2.0.0","416661","parq0lw64nk","lion","null","<div style=""font-size:60px; color: black;"">+</div>","","","","","","","","","","",""
"","null","image-keyboard-response","279","2.0.0","418664","parq0lw64nk","lion","null","stimuli\EXEMPLAR\USED\Ehotairballoon2.jpg","","","","","Memory","false","null","","","",""
"","null","html-keyboard-response","280","2.0.0","419166","parq0lw64nk","lion","null","<div style=""font-size:60px; color: black;"">+</div>","","","","","","","","","","",""
"","null","image-keyboard-response","281","2.0.0","421168","parq0lw64nk","lion","null","stimuli\STATE\USED\Spatiotable1.jpg","","","","","Memory","false","null","","","",""
"","null","html-keyboard-response","282","2.0.0","421670","parq0lw64nk","lion","null","<div style=""font-size:60px; color: black;"">+</div>","","","","","","","","","","",""
"","null","image-keyboard-response","283","2.0.0","423673","parq0lw64nk","lion","null","stimuli\EXEMPLAR\USED\Erazor2.jpg","","","","","Memory","false","null","","","",""
"","null","html-keyboard-response","284","2.0.0","424176","parq0lw64nk","lion","null","<div style=""font-size:60px; color: black;"">+</div>","","","","","","","","","","",""
"","null","image-keyboard-response","285","2.0.0","426178","parq0lw64nk","lion","null","stimuli\EXEMPLAR\USED\Ehanger2.jpg","","","","","Memory","false","null","","","",""
"","null","html-keyboard-response","286","2.0.0","426681","parq0lw64nk","lion","null","<div style=""font-size:60px; color: black;"">+</div>","","","","","","","","","","",""
"","null","image-keyboard-response","287","2.0.0","428684","parq0lw64nk","lion","null","stimuli\EXEMPLAR\USED\Estapler2.jpg","","","","","Memory","false","null","","","",""
"","null","html-keyboard-response","288","2.0.0","429187","parq0lw64nk","lion","null","<div style=""font-size:60px; color: black;"">+</div>","","","","","","","","","","",""
"","1263","image-keyboard-response","289","2.0.0","431190","parq0lw64nk","lion"," ","stimuli\STATE\USED\Spatiotable1.jpg","","","","","Memory","true","true","","","",""
"","null","html-keyboard-response","290","2.0.0","431692","parq0lw64nk","lion","null","<div style=""font-size:60px; color: green;"">+</div>","","","","","","","","","","",""
"","null","image-keyboard-response","291","2.0.0","433695","parq0lw64nk","lion","null","stimuli\STATE\USED\Sdresser2.jpg","","","","","Memory","false","null","","","",""
"","null","html-keyboard-response","292","2.0.0","434197","parq0lw64nk","lion","null","<div style=""font-size:60px; color: black;"">+</div>","","","","","","","","","","",""
"","null","image-keyboard-response","293","2.0.0","436200","parq0lw64nk","lion","null","stimuli\STATE\USED\Sbook1.JPG","","","","","Memory","false","null","","","",""
"","null","html-keyboard-response","294","2.0.0","436702","parq0lw64nk","lion","null","<div style=""font-size:60px; color: black;"">+</div>","","","","","","","","","","",""
"","null","image-keyboard-response","295","2.0.0","438705","parq0lw64nk","lion","null","stimuli\STATE\USED\Sapple1.jpg","","","","","Memory","false","null","","","",""
"","null","html-keyboard-response","296","2.0.0","439207","parq0lw64nk","lion","null","<div style=""font-size:60px; color: black;"">+</div>","","","","","","","","","","",""
"","null","image-keyboard-response","297","2.0.0","441210","parq0lw64nk","lion","null","stimuli\STATE\USED\Sbelt1.jpg","","","","","Memory","false","null","","","",""
"","null","html-keyboard-response","298","2.0.0","441713","parq0lw64nk","lion","null","<div style=""font-size:60px; color: black;"">+</div>","","","","","","","","","","",""
"","null","image-keyboard-response","299","2.0.0","443716","parq0lw64nk","lion","null","stimuli\STATE\USED\Sbureau1.JPG","","","","","Memory","false","null","","","",""
"","null","html-keyboard-response","300","2.0.0","444218","parq0lw64nk","lion","null","<div style=""font-size:60px; color: black;"">+</div>","","","","","","","","","","",""
"","null","image-keyboard-response","301","2.0.0","446220","parq0lw64nk","lion","null","stimuli\STATE\USED\Scontainer2.JPG","","","","","Memory","false","null","","","",""
"","null","html-keyboard-response","302","2.0.0","446722","parq0lw64nk","lion","null","<div style=""font-size:60px; color: black;"">+</div>","","","","","","","","","","",""
"","null","image-keyboard-response","303","2.0.0","448725","parq0lw64nk","lion","null","stimuli\STATE\USED\Sbabytoy1.JPG","","","","","Memory","false","null","","","",""
"","null","html-keyboard-response","304","2.0.0","449228","parq0lw64nk","lion","null","<div style=""font-size:60px; color: black;"">+</div>","","","","","","","","","","",""
"","1025","image-keyboard-response","305","2.0.0","451232","parq0lw64nk","lion"," ","stimuli\STATE\USED\Sbelt1.jpg","","","","","Memory","true","true","","","",""
"","null","html-keyboard-response","306","2.0.0","451735","parq0lw64nk","lion","null","<div style=""font-size:60px; color: green;"">+</div>","","","","","","","","","","",""
"","null","image-keyboard-response","307","2.0.0","453738","parq0lw64nk","lion","null","stimuli\EXEMPLAR\USED\Etoyhand1.jpg","","","","","Memory","false","null","","","",""
"","null","html-keyboard-response","308","2.0.0","454241","parq0lw64nk","lion","null","<div style=""font-size:60px; color: black;"">+</div>","","","","","","","","","","",""
"","null","image-keyboard-response","309","2.0.0","456243","parq0lw64nk","lion","null","stimuli\STATE\USED\Scooker2.jpg","","","","","Memory","false","null","","","",""
"","null","html-keyboard-response","310","2.0.0","456746","parq0lw64nk","lion","null","<div style=""font-size:60px; color: black;"">+</div>","","","","","","","","","","",""
"","null","image-keyboard-response","311","2.0.0","458749","parq0lw64nk","lion","null","stimuli\STATE\USED\Schinesefoodbox2.jpg","","","","","Memory","false","null","","","",""
"","null","html-keyboard-response","312","2.0.0","459252","parq0lw64nk","lion","null","<div style=""font-size:60px; color: black;"">+</div>","","","","","","","","","","",""
"","1946","html-button-response","313","2.0.0","461199","parq0lw64nk","lion","0","Are you still there?","","","","","Attention Check","","","","","",""
"","null","image-keyboard-response","314","2.0.0","463202","parq0lw64nk","lion","null","stimuli\STATE\USED\Shandmirror1.jpg","","","","","Memory","false","null","","","",""
"","null","html-keyboard-response","315","2.0.0","463704","parq0lw64nk","lion","null","<div style=""font-size:60px; color: black;"">+</div>","","","","","","","","","","",""
"","null","image-keyboard-response","316","2.0.0","465707","parq0lw64nk","lion","null","stimuli\EXEMPLAR\USED\Emuffler2.jpg","","","","","Memory","false","null","","","",""
"","null","html-keyboard-response","317","2.0.0","466210","parq0lw64nk","lion","null","<div style=""font-size:60px; color: black;"">+</div>","","","","","","","","","","",""
"","1216","image-keyboard-response","318","2.0.0","468213","parq0lw64nk","lion"," ","stimuli\STATE\USED\Scooker2.jpg","","","","","Memory","true","true","","","",""
"","null","html-keyboard-response","319","2.0.0","468716","parq0lw64nk","lion","null","<div style=""font-size:60px; color: green;"">+</div>","","","","","","","","","","",""
"","null","image-keyboard-response","320","2.0.0","470719","parq0lw64nk","lion","null","stimuli\EXEMPLAR\USED\Ebicycle2.jpg","","","","","Memory","false","null","","","",""
"","null","html-keyboard-response","321","2.0.0","471222","parq0lw64nk","lion","null","<div style=""font-size:60px; color: black;"">+</div>","","","","","","","","","","",""
"","1485","image-keyboard-response","322","2.0.0","473225","parq0lw64nk","lion"," ","stimuli\STATE\USED\Sphoneold1.jpg","","","","","Memory","false","false","","","",""
"","null","html-keyboard-response","323","2.0.0","473728","parq0lw64nk","lion","null","<div style=""font-size:60px; color: red;"">+</div>","","","","","","","","","","",""
"","null","image-keyboard-response","324","2.0.0","475730","parq0lw64nk","lion","null","stimuli\EXEMPLAR\USED\Etrain1.jpg","","","","","Memory","false","null","","","",""
"","null","html-keyboard-response","325","2.0.0","476232","parq0lw64nk","lion","null","<div style=""font-size:60px; color: black;"">+</div>","","","","","","","","","","",""
"","null","image-keyboard-response","326","2.0.0","478235","parq0lw64nk","lion","null","stimuli\STATE\USED\Slockbox2.jpg","","","","","Memory","false","null","","","",""
"","null","html-keyboard-response","327","2.0.0","478738","parq0lw64nk","lion","null","<div style=""font-size:60px; color: black;"">+</div>","","","","","","","","","","",""
"","null","image-keyboard-response","328","2.0.0","480741","parq0lw64nk","lion","null","stimuli\EXEMPLAR\USED\Eballoon2.jpg","","","","","Memory","false","null","","","",""
"","null","html-keyboard-response","329","2.0.0","481243","parq0lw64nk","lion","null","<div style=""font-size:60px; color: black;"">+</div>","","","","","","","","","","",""
"","null","image-keyboard-response","330","2.0.0","483246","parq0lw64nk","lion","null","stimuli\STATE\USED\Sphone2.JPG","","","","","Memory","false","null","","","",""
"","null","html-keyboard-response","331","2.0.0","483758","parq0lw64nk","lion","null","<div style=""font-size:60px; color: black;"">+</div>","","","","","","","","","","",""
"","1295","image-keyboard-response","332","2.0.0","485761","parq0lw64nk","lion"," ","stimuli\EXEMPLAR\USED\Etrain1.jpg","","","","","Memory","true","true","","","",""
"","null","html-keyboard-response","333","2.0.0","486264","parq0lw64nk","lion","null","<div style=""font-size:60px; color: green;"">+</div>","","","","","","","","","","",""
"","null","image-keyboard-response","334","2.0.0","488267","parq0lw64nk","lion","null","stimuli\EXEMPLAR\USED\Espraybottle1.jpg","","","","","Memory","false","null","","","",""
"","null","html-keyboard-response","335","2.0.0","488770","parq0lw64nk","lion","null","<div style=""font-size:60px; color: black;"">+</div>","","","","","","","","","","",""
"","null","image-keyboard-response","336","2.0.0","490773","parq0lw64nk","lion","null","stimuli\EXEMPLAR\USED\Etoyplane2.jpg","","","","","Memory","false","null","","","",""
"","null","html-keyboard-response","337","2.0.0","491276","parq0lw64nk","lion","null","<div style=""font-size:60px; color: black;"">+</div>","","","","","","","","","","",""
"","null","image-keyboard-response","338","2.0.0","493278","parq0lw64nk","lion","null","stimuli\STATE\USED\Sflask2.jpg","","","","","Memory","false","null","","","",""
"","null","html-keyboard-response","339","2.0.0","493781","parq0lw64nk","lion","null","<div style=""font-size:60px; color: black;"">+</div>","","","","","","","","","","",""
"","null","image-keyboard-response","340","2.0.0","495784","parq0lw64nk","lion","null","stimuli\EXEMPLAR\USED\Eladder1.jpg","","","","","Memory","false","null","","","",""
"","null","html-keyboard-response","341","2.0.0","496287","parq0lw64nk","lion","null","<div style=""font-size:60px; color: black;"">+</div>","","","","","","","","","","",""
"","null","image-keyboard-response","342","2.0.0","498290","parq0lw64nk","lion","null","stimuli\EXEMPLAR\USED\Emuffin2.jpg","","","","","Memory","false","null","","","",""
"","null","html-keyboard-response","343","2.0.0","498793","parq0lw64nk","lion","null","<div style=""font-size:60px; color: black;"">+</div>","","","","","","","","","","",""
"","null","image-keyboard-response","344","2.0.0","500796","parq0lw64nk","lion","null","stimuli\STATE\USED\Sseats1.jpg","","","","","Memory","false","null","","","",""
"","null","html-keyboard-response","345","2.0.0","501299","parq0lw64nk","lion","null","<div style=""font-size:60px; color: black;"">+</div>","","","","","","","","","","",""
"","null","image-keyboard-response","346","2.0.0","503301","parq0lw64nk","lion","null","stimuli\STATE\USED\Spicnicbasket2.jpg","","","","","Memory","false","null","","","",""
"","null","html-keyboard-response","347","2.0.0","503805","parq0lw64nk","lion","null","<div style=""font-size:60px; color: black;"">+</div>","","","","","","","","","","",""
"","9989","html-keyboard-response","348","2.0.0","513795","parq0lw64nk","lion"," ","
          <p>In the next part of this experiment, you will see 2 images. Please select the image that you recall from the image stream.</p>
          <p>You will also rate your confidence for each image you recall.</p>
          <p>Press any key to start.</p>
        ","","","","","","","","","","",""
"","2937","html-button-response","349","2.0.0","516735","parq0lw64nk","lion","0","Which of these items did you see before?","","","","","Test","","true","[""stimuli\\STATE\\USED\\Sflask2.jpg"",""stimuli\\STATE\\USED\\Sflask1.jpg""]","stimuli\STATE\USED\Sflask2.jpg","stimuli\STATE\USED\Sflask2.jpg",""
"","3708","image-slider-response","350","2.0.0","520453","parq0lw64nk","lion","5","stimuli\STATE\USED\Sflask2.jpg","","","","","","","","","","","3"
"","2930","html-button-response","351","2.0.0","523384","parq0lw64nk","lion","0","Which of these items did you see before?","","","","","Test","","true","[""stimuli\\EXEMPLAR\\USED\\Eframe2.jpg"",""stimuli\\EXEMPLAR\\USED\\Eframe1.jpg""]","stimuli\EXEMPLAR\USED\Eframe2.jpg","stimuli\EXEMPLAR\USED\Eframe2.jpg",""
"","2330","image-slider-response","352","2.0.0","525716","parq0lw64nk","lion","4","stimuli\EXEMPLAR\USED\Eframe2.jpg","","","","","","","","","","","3"
"","3549","html-button-response","353","2.0.0","529267","parq0lw64nk","lion","1","Which of these items did you see before?","","","","","Test","","true","[""stimuli\\EXEMPLAR\\USED\\Ecamera2.jpg"",""stimuli\\EXEMPLAR\\USED\\Ecamera1.jpg""]","stimuli\EXEMPLAR\USED\Ecamera1.jpg","stimuli\EXEMPLAR\USED\Ecamera1.jpg",""
"","3047","image-slider-response","354","2.0.0","532316","parq0lw64nk","lion","3","stimuli\EXEMPLAR\USED\Ecamera1.jpg","","","","","","","","","","","3"
"","1602","html-button-response","355","2.0.0","533919","parq0lw64nk","lion","0","Which of these items did you see before?","","","","","Test","","true","[""stimuli\\STATE\\USED\\Sdryer1.jpg"",""stimuli\\STATE\\USED\\Sdryer2.jpg""]","stimuli\STATE\USED\Sdryer1.jpg","stimuli\STATE\USED\Sdryer1.jpg",""
"","2113","image-slider-response","356","2.0.0","536034","parq0lw64nk","lion","5","stimuli\STATE\USED\Sdryer1.jpg","","","","","","","","","","","3"
"","1963","html-button-response","357","2.0.0","537999","parq0lw64nk","lion","0","Which of these items did you see before?","","","","","Test","","true","[""stimuli\\STATE\\USED\\Scooker2.jpg"",""stimuli\\STATE\\USED\\Scooker1.jpg""]","stimuli\STATE\USED\Scooker2.jpg","stimuli\STATE\USED\Scooker2.jpg",""
"","3415","image-slider-response","358","2.0.0","541415","parq0lw64nk","lion","5","stimuli\STATE\USED\Scooker2.jpg","","","","","","","","","","","3"
"","1317","html-button-response","359","2.0.0","542734","parq0lw64nk","lion","0","Which of these items did you see before?","","","","","Test","","true","[""stimuli\\STATE\\USED\\Sskull2.jpg"",""stimuli\\STATE\\USED\\Sskull1.jpg""]","stimuli\STATE\USED\Sskull2.jpg","stimuli\STATE\USED\Sskull2.jpg",""
"","2097","image-slider-response","360","2.0.0","544833","parq0lw64nk","lion","4","stimuli\STATE\USED\Sskull2.jpg","","","","","","","","","","","3"
"","1199","html-button-response","361","2.0.0","546033","parq0lw64nk","lion","1","Which of these items did you see before?","","","","","Test","","true","[""stimuli\\EXEMPLAR\\USED\\Ebread2.jpg"",""stimuli\\EXEMPLAR\\USED\\Ebread1.jpg""]","stimuli\EXEMPLAR\USED\Ebread1.jpg","stimuli\EXEMPLAR\USED\Ebread1.jpg",""
"","2547","image-slider-response","362","2.0.0","548583","parq0lw64nk","lion","4","stimuli\EXEMPLAR\USED\Ebread1.jpg","","","","","","","","","","","3"
"","5515","html-button-response","363","2.0.0","554099","parq0lw64nk","lion","0","Which of these items did you see before?","","","","","Test","","true","[""stimuli\\EXEMPLAR\\USED\\Echopsticks1.jpg"",""stimuli\\EXEMPLAR\\USED\\Echopsticks2.jpg""]","stimuli\EXEMPLAR\USED\Echopsticks1.jpg","stimuli\EXEMPLAR\USED\Echopsticks1.jpg",""
"","3048","image-slider-response","364","2.0.0","557149","parq0lw64nk","lion","2","stimuli\EXEMPLAR\USED\Echopsticks1.jpg","","","","","","","","","","","3"
"","6767","html-button-response","365","2.0.0","563917","parq0lw64nk","lion","0","Which of these items did you see before?","","","","","Test","","true","[""stimuli\\STATE\\USED\\Scoffeemaker1.JPG"",""stimuli\\STATE\\USED\\Scoffeemaker2.JPG""]","stimuli\STATE\USED\Scoffeemaker1.JPG","stimuli\STATE\USED\Scoffeemaker1.JPG",""
"","2829","image-slider-response","366","2.0.0","566749","parq0lw64nk","lion","3","stimuli\STATE\USED\Scoffeemaker1.JPG","","","","","","","","","","","3"
"","2067","html-button-response","367","2.0.0","568818","parq0lw64nk","lion","0","Which of these items did you see before?","","","","","Test","","true","[""stimuli\\STATE\\USED\\Shairbrush1.jpg"",""stimuli\\STATE\\USED\\Shairbrush2.jpg""]","stimuli\STATE\USED\Shairbrush1.jpg","stimuli\STATE\USED\Shairbrush1.jpg",""
"","3729","image-slider-response","368","2.0.0","572550","parq0lw64nk","lion","5","stimuli\STATE\USED\Shairbrush1.jpg","","","","","","","","","","","3"
"","2616","html-button-response","369","2.0.0","575167","parq0lw64nk","lion","0","Which of these items did you see before?","","","","","Test","","true","[""stimuli\\STATE\\USED\\Sbreadslice1.jpg"",""stimuli\\STATE\\USED\\Sbreadslice2.jpg""]","stimuli\STATE\USED\Sbreadslice1.jpg","stimuli\STATE\USED\Sbreadslice1.jpg",""
"","2846","image-slider-response","370","2.0.0","578015","parq0lw64nk","lion","5","stimuli\STATE\USED\Sbreadslice1.jpg","","","","","","","","","","","3"
"","1838","html-button-response","371","2.0.0","579854","parq0lw64nk","lion","0","Which of these items did you see before?","","","","","Test","","true","[""stimuli\\EXEMPLAR\\USED\\Earch2.jpg"",""stimuli\\EXEMPLAR\\USED\\Earch1.jpg""]","stimuli\EXEMPLAR\USED\Earch2.jpg","stimuli\EXEMPLAR\USED\Earch2.jpg",""
"","2360","image-slider-response","372","2.0.0","582216","parq0lw64nk","lion","3","stimuli\EXEMPLAR\USED\Earch2.jpg","","","","","","","","","","","3"
"","1315","html-button-response","373","2.0.0","583533","parq0lw64nk","lion","0","Which of these items did you see before?","","","","","Test","","true","[""stimuli\\EXEMPLAR\\USED\\Enozzle2.jpg"",""stimuli\\EXEMPLAR\\USED\\Enozzle1.jpg""]","stimuli\EXEMPLAR\USED\Enozzle2.jpg","stimuli\EXEMPLAR\USED\Enozzle2.jpg",""
"","2382","image-slider-response","374","2.0.0","585917","parq0lw64nk","lion","5","stimuli\EXEMPLAR\USED\Enozzle2.jpg","","","","","","","","","","","3"
"","2531","html-button-response","375","2.0.0","588449","parq0lw64nk","lion","0","Which of these items did you see before?","","","","","Test","","true","[""stimuli\\EXEMPLAR\\USED\\Echocolatebar1.jpg"",""stimuli\\EXEMPLAR\\USED\\Echocolatebar2.jpg""]","stimuli\EXEMPLAR\USED\Echocolatebar1.jpg","stimuli\EXEMPLAR\USED\Echocolatebar1.jpg",""
"","3431","image-slider-response","376","2.0.0","591883","parq0lw64nk","lion","4","stimuli\EXEMPLAR\USED\Echocolatebar1.jpg","","","","","","","","","","","3"
"","1882","html-button-response","377","2.0.0","593766","parq0lw64nk","lion","0","Which of these items did you see before?","","","","","Test","","true","[""stimuli\\STATE\\USED\\Siron1.jpg"",""stimuli\\STATE\\USED\\Siron2.jpg""]","stimuli\STATE\USED\Siron1.jpg","stimuli\STATE\USED\Siron1.jpg",""
"","1730","image-slider-response","378","2.0.0","595498","parq0lw64nk","lion","4","stimuli\STATE\USED\Siron1.jpg","","","","","","","","","","","3"
"","1317","html-button-response","379","2.0.0","596816","parq0lw64nk","lion","0","Which of these items did you see before?","","","","","Test","","true","[""stimuli\\EXEMPLAR\\USED\\Ebrick1.jpg"",""stimuli\\EXEMPLAR\\USED\\Ebrick2.jpg""]","stimuli\EXEMPLAR\USED\Ebrick1.jpg","stimuli\EXEMPLAR\USED\Ebrick1.jpg",""
"","1614","image-slider-response","380","2.0.0","598432","parq0lw64nk","lion","5","stimuli\EXEMPLAR\USED\Ebrick1.jpg","","","","","","","","","","","3"
"","4151","html-button-response","381","2.0.0","602584","parq0lw64nk","lion","0","Which of these items did you see before?","","","","","Test","","true","[""stimuli\\STATE\\USED\\Spotpan1.JPG"",""stimuli\\STATE\\USED\\Spotpan2.JPG""]","stimuli\STATE\USED\Spotpan1.JPG","stimuli\STATE\USED\Spotpan1.JPG",""
"","1547","image-slider-response","382","2.0.0","604134","parq0lw64nk","lion","3","stimuli\STATE\USED\Spotpan1.JPG","","","","","","","","","","","3"
"","3064","html-button-response","383","2.0.0","607199","parq0lw64nk","lion","0","Which of these items did you see before?","","","","","Test","","true","[""stimuli\\STATE\\USED\\Sbrushes2.jpg"",""stimuli\\STATE\\USED\\Sbrushes1.jpg""]","stimuli\STATE\USED\Sbrushes2.jpg","stimuli\STATE\USED\Sbrushes2.jpg",""
"","3067","image-slider-response","384","2.0.0","610267","parq0lw64nk","lion","2","stimuli\STATE\USED\Sbrushes2.jpg","","","","","","","","","","","3"
"","1997","html-button-response","385","2.0.0","612266","parq0lw64nk","lion","0","Which of these items did you see before?","","","","","Test","","true","[""stimuli\\EXEMPLAR\\USED\\Eremote2.jpg"",""stimuli\\EXEMPLAR\\USED\\Eremote1.jpg""]","stimuli\EXEMPLAR\USED\Eremote2.jpg","stimuli\EXEMPLAR\USED\Eremote2.jpg",""
"","1680","image-slider-response","386","2.0.0","613948","parq0lw64nk","lion","3","stimuli\EXEMPLAR\USED\Eremote2.jpg","","","","","","","","","","","3"
"","1383","html-button-response","387","2.0.0","615332","parq0lw64nk","lion","0","Which of these items did you see before?","","","","","Test","","true","[""stimuli\\STATE\\USED\\Sgiftbag2.jpg"",""stimuli\\STATE\\USED\\Sgiftbag1.jpg""]","stimuli\STATE\USED\Sgiftbag2.jpg","stimuli\STATE\USED\Sgiftbag2.jpg",""
"","4481","image-slider-response","388","2.0.0","619816","parq0lw64nk","lion","5","stimuli\STATE\USED\Sgiftbag2.jpg","","","","","","","","","","","3"
"","1870","html-button-response","389","2.0.0","621686","parq0lw64nk","lion","1","Which of these items did you see before?","","","","","Test","","true","[""stimuli\\EXEMPLAR\\USED\\Emedal2.jpg"",""stimuli\\EXEMPLAR\\USED\\Emedal1.jpg""]","stimuli\EXEMPLAR\USED\Emedal1.jpg","stimuli\EXEMPLAR\USED\Emedal1.jpg",""
"","1678","image-slider-response","390","2.0.0","623366","parq0lw64nk","lion","4","stimuli\EXEMPLAR\USED\Emedal1.jpg","","","","","","","","","","","3"
"","1048","html-button-response","391","2.0.0","624415","parq0lw64nk","lion","1","Which of these items did you see before?","","","","","Test","","true","[""stimuli\\EXEMPLAR\\USED\\Eballoon1.jpg"",""stimuli\\EXEMPLAR\\USED\\Eballoon2.jpg""]","stimuli\EXEMPLAR\USED\Eballoon2.jpg","stimuli\EXEMPLAR\USED\Eballoon2.jpg",""
"","1566","image-slider-response","392","2.0.0","625982","parq0lw64nk","lion","5","stimuli\EXEMPLAR\USED\Eballoon2.jpg","","","","","","","","","","","3"
"","1983","html-button-response","393","2.0.0","627967","parq0lw64nk","lion","1","Which of these items did you see before?","","","","","Test","","true","[""stimuli\\EXEMPLAR\\USED\\Echeeses2.jpg"",""stimuli\\EXEMPLAR\\USED\\Echeeses1.jpg""]","stimuli\EXEMPLAR\USED\Echeeses1.jpg","stimuli\EXEMPLAR\USED\Echeeses1.jpg",""
"","2781","image-slider-response","394","2.0.0","630749","parq0lw64nk","lion","5","stimuli\EXEMPLAR\USED\Echeeses1.jpg","","","","","","","","","","","3"
"","2600","html-button-response","395","2.0.0","633350","parq0lw64nk","lion","0","Which of these items did you see before?","","","","","Test","","true","[""stimuli\\STATE\\USED\\Sbureau1.JPG"",""stimuli\\STATE\\USED\\Sbureau2.JPG""]","stimuli\STATE\USED\Sbureau1.JPG","stimuli\STATE\USED\Sbureau1.JPG",""
"","3213","image-slider-response","396","2.0.0","636565","parq0lw64nk","lion","5","stimuli\STATE\USED\Sbureau1.JPG","","","","","","","","","","","3"
"","1034","html-button-response","397","2.0.0","637600","parq0lw64nk","lion","0","Which of these items did you see before?","","","","","Test","","true","[""stimuli\\STATE\\USED\\Sredcabbage2.jpg"",""stimuli\\STATE\\USED\\Sredcabbage1.jpg""]","stimuli\STATE\USED\Sredcabbage2.jpg","stimuli\STATE\USED\Sredcabbage2.jpg",""
"","1747","image-slider-response","398","2.0.0","639349","parq0lw64nk","lion","5","stimuli\STATE\USED\Sredcabbage2.jpg","","","","","","","","","","","3"
"","1114","html-button-response","399","2.0.0","640465","parq0lw64nk","lion","1","Which of these items did you see before?","","","","","Test","","true","[""stimuli\\STATE\\USED\\Sbook2.JPG"",""stimuli\\STATE\\USED\\Sbook1.JPG""]","stimuli\STATE\USED\Sbook1.JPG","stimuli\STATE\USED\Sbook1.JPG",""
"","2266","image-slider-response","400","2.0.0","642733","parq0lw64nk","lion","5","stimuli\STATE\USED\Sbook1.JPG","","","","","","","","","","","3"
"","1265","html-button-response","401","2.0.0","643999","parq0lw64nk","lion","1","Which of these items did you see before?","","","","","Test","","true","[""stimuli\\STATE\\USED\\Sbelt2.jpg"",""stimuli\\STATE\\USED\\Sbelt1.jpg""]","stimuli\STATE\USED\Sbelt1.jpg","stimuli\STATE\USED\Sbelt1.jpg",""
"","2565","image-slider-response","402","2.0.0","646566","parq0lw64nk","lion","5","stimuli\STATE\USED\Sbelt1.jpg","","","","","","","","","","","3"
"","1149","html-button-response","403","2.0.0","647716","parq0lw64nk","lion","0","Which of these items did you see before?","","","","","Test","","true","[""stimuli\\EXEMPLAR\\USED\\Econe1.jpg"",""stimuli\\EXEMPLAR\\USED\\Econe2.jpg""]","stimuli\EXEMPLAR\USED\Econe1.jpg","stimuli\EXEMPLAR\USED\Econe1.jpg",""
"","1650","image-slider-response","404","2.0.0","649368","parq0lw64nk","lion","5","stimuli\EXEMPLAR\USED\Econe1.jpg","","","","","","","","","","","3"
"","10314","html-button-response","405","2.0.0","659682","parq0lw64nk","lion","0","Which of these items did you see before?","","","","","Test","","false","[""stimuli\\EXEMPLAR\\USED\\Eheadphones1.jpg"",""stimuli\\EXEMPLAR\\USED\\Eheadphones2.jpg""]","stimuli\EXEMPLAR\USED\Eheadphones2.jpg","stimuli\EXEMPLAR\USED\Eheadphones1.jpg",""
"","1863","image-slider-response","406","2.0.0","661548","parq0lw64nk","lion","1","stimuli\EXEMPLAR\USED\Eheadphones1.jpg","","","","","","","","","","","3"
"","1699","html-button-response","407","2.0.0","663248","parq0lw64nk","lion","0","Which of these items did you see before?","","","","","Test","","true","[""stimuli\\EXEMPLAR\\USED\\Etongs1.jpg"",""stimuli\\EXEMPLAR\\USED\\Etongs2.jpg""]","stimuli\EXEMPLAR\USED\Etongs1.jpg","stimuli\EXEMPLAR\USED\Etongs1.jpg",""
"","3102","image-slider-response","408","2.0.0","666352","parq0lw64nk","lion","3","stimuli\EXEMPLAR\USED\Etongs1.jpg","","","","","","","","","","","3"
"","5644","html-button-response","409","2.0.0","671998","parq0lw64nk","lion","1","Which of these items did you see before?","","","","","Test","","true","[""stimuli\\EXEMPLAR\\USED\\Ehotairballoon1.jpg"",""stimuli\\EXEMPLAR\\USED\\Ehotairballoon2.jpg""]","stimuli\EXEMPLAR\USED\Ehotairballoon2.jpg","stimuli\EXEMPLAR\USED\Ehotairballoon2.jpg",""
"","2399","image-slider-response","410","2.0.0","674398","parq0lw64nk","lion","2","stimuli\EXEMPLAR\USED\Ehotairballoon2.jpg","","","","","","","","","","","3"
"","3482","html-button-response","411","2.0.0","677881","parq0lw64nk","lion","0","Which of these items did you see before?","","","","","Test","","true","[""stimuli\\STATE\\USED\\Saccordion1.jpg"",""stimuli\\STATE\\USED\\Saccordion2.jpg""]","stimuli\STATE\USED\Saccordion1.jpg","stimuli\STATE\USED\Saccordion1.jpg",""
"","3416","image-slider-response","412","2.0.0","681298","parq0lw64nk","lion","1","stimuli\STATE\USED\Saccordion1.jpg","","","","","","","","","","","3"
"","3799","html-button-response","413","2.0.0","685098","parq0lw64nk","lion","0","Which of these items did you see before?","","","","","Test","","false","[""stimuli\\STATE\\USED\\Spadlock1.jpg"",""stimuli\\STATE\\USED\\Spadlock2.jpg""]","stimuli\STATE\USED\Spadlock2.jpg","stimuli\STATE\USED\Spadlock1.jpg",""
"","1832","image-slider-response","414","2.0.0","686931","parq0lw64nk","lion","1","stimuli\STATE\USED\Spadlock1.jpg","","","","","","","","","","","3"
"","1448","html-button-response","415","2.0.0","688381","parq0lw64nk","lion","1","Which of these items did you see before?","","","","","Test","","true","[""stimuli\\STATE\\USED\\Sdonut2.jpg"",""stimuli\\STATE\\USED\\Sdonut1.jpg""]","stimuli\STATE\USED\Sdonut1.jpg","stimuli\STATE\USED\Sdonut1.jpg",""
"","2115","image-slider-response","416","2.0.0","690497","parq0lw64nk","lion","4","stimuli\STATE\USED\Sdonut1.jpg","","","","","","","","","","","3"
"","1568","html-button-response","417","2.0.0","692066","parq0lw64nk","lion","1","Which of these items did you see before?","","","","","Test","","true","[""stimuli\\EXEMPLAR\\USED\\Espraybottle2.jpg"",""stimuli\\EXEMPLAR\\USED\\Espraybottle1.jpg""]","stimuli\EXEMPLAR\USED\Espraybottle1.jpg","stimuli\EXEMPLAR\USED\Espraybottle1.jpg",""
"","5114","image-slider-response","418","2.0.0","697183","parq0lw64nk","lion","2","stimuli\EXEMPLAR\USED\Espraybottle1.jpg","","","","","","","","","","","3"
"","1380","html-button-response","419","2.0.0","698565","parq0lw64nk","lion","1","Which of these items did you see before?","","","","","Test","","true","[""stimuli\\EXEMPLAR\\USED\\Eswimsuit2.jpg"",""stimuli\\EXEMPLAR\\USED\\Eswimsuit1.jpg""]","stimuli\EXEMPLAR\USED\Eswimsuit1.jpg","stimuli\EXEMPLAR\USED\Eswimsuit1.jpg",""
"","1514","image-slider-response","420","2.0.0","700081","parq0lw64nk","lion","5","stimuli\EXEMPLAR\USED\Eswimsuit1.jpg","","","","","","","","","","","3"
"","2350","html-button-response","421","2.0.0","702432","parq0lw64nk","lion","1","Which of these items did you see before?","","","","","Test","","false","[""stimuli\\STATE\\USED\\Sbabytoy1.JPG"",""stimuli\\STATE\\USED\\Sbabytoy2.JPG""]","stimuli\STATE\USED\Sbabytoy1.JPG","stimuli\STATE\USED\Sbabytoy2.JPG",""
"","5532","image-slider-response","422","2.0.0","707965","parq0lw64nk","lion","2","stimuli\STATE\USED\Sbabytoy2.JPG","","","","","","","","","","","3"
"","2382","html-button-response","423","2.0.0","710348","parq0lw64nk","lion","1","Which of these items did you see before?","","","","","Test","","true","[""stimuli\\STATE\\USED\\Sjuiceglass2.JPG"",""stimuli\\STATE\\USED\\Sjuiceglass1.JPG""]","stimuli\STATE\USED\Sjuiceglass1.JPG","stimuli\STATE\USED\Sjuiceglass1.JPG",""
"","1980","image-slider-response","424","2.0.0","712331","parq0lw64nk","lion","1","stimuli\STATE\USED\Sjuiceglass1.JPG","","","","","","","","","","","3"
"","2833","html-button-response","425","2.0.0","715165","parq0lw64nk","lion","1","Which of these items did you see before?","","","","","Test","","true","[""stimuli\\EXEMPLAR\\USED\\Emuffler1.jpg"",""stimuli\\EXEMPLAR\\USED\\Emuffler2.jpg""]","stimuli\EXEMPLAR\USED\Emuffler2.jpg","stimuli\EXEMPLAR\USED\Emuffler2.jpg",""
"","2348","image-slider-response","426","2.0.0","717515","parq0lw64nk","lion","4","stimuli\EXEMPLAR\USED\Emuffler2.jpg","","","","","","","","","","","3"
"","3548","html-button-response","427","2.0.0","721064","parq0lw64nk","lion","0","Which of these items did you see before?","","","","","Test","","true","[""stimuli\\STATE\\USED\\Sbriefcasemetal1.JPG"",""stimuli\\STATE\\USED\\Sbriefcasemetal2.JPG""]","stimuli\STATE\USED\Sbriefcasemetal1.JPG","stimuli\STATE\USED\Sbriefcasemetal1.JPG",""
"","1866","image-slider-response","428","2.0.0","722931","parq0lw64nk","lion","2","stimuli\STATE\USED\Sbriefcasemetal1.JPG","","","","","","","","","","","3"
"","1581","html-button-response","429","2.0.0","724513","parq0lw64nk","lion","0","Which of these items did you see before?","","","","","Test","","true","[""stimuli\\EXEMPLAR\\USED\\Escroll2.jpg"",""stimuli\\EXEMPLAR\\USED\\Escroll1.jpg""]","stimuli\EXEMPLAR\USED\Escroll2.jpg","stimuli\EXEMPLAR\USED\Escroll2.jpg",""
"","2567","image-slider-response","430","2.0.0","727081","parq0lw64nk","lion","3","stimuli\EXEMPLAR\USED\Escroll2.jpg","","","","","","","","","","","3"
"","1785","html-button-response","431","2.0.0","728866","parq0lw64nk","lion","1","Which of these items did you see before?","","","","","Test","","true","[""stimuli\\STATE\\USED\\Sschoolbag1.JPG"",""stimuli\\STATE\\USED\\Sschoolbag2.JPG""]","stimuli\STATE\USED\Sschoolbag2.JPG","stimuli\STATE\USED\Sschoolbag2.JPG",""
"","2613","image-slider-response","432","2.0.0","731481","parq0lw64nk","lion","5","stimuli\STATE\USED\Sschoolbag2.JPG","","","","","","","","","","","3"
"","5050","html-button-response","433","2.0.0","736532","parq0lw64nk","lion","1","Which of these items did you see before?","","","","","Test","","true","[""stimuli\\STATE\\USED\\Sdie1.jpg"",""stimuli\\STATE\\USED\\Sdie2.jpg""]","stimuli\STATE\USED\Sdie2.jpg","stimuli\STATE\USED\Sdie2.jpg",""
"","1583","image-slider-response","434","2.0.0","738117","parq0lw64nk","lion","1","stimuli\STATE\USED\Sdie2.jpg","","","","","","","","","","","3"
"","6831","html-button-response","435","2.0.0","744949","parq0lw64nk","lion","0","Which of these items did you see before?","","","","","Test","","true","[""stimuli\\EXEMPLAR\\USED\\Erazor2.jpg"",""stimuli\\EXEMPLAR\\USED\\Erazor1.jpg""]","stimuli\EXEMPLAR\USED\Erazor2.jpg","stimuli\EXEMPLAR\USED\Erazor2.jpg",""
"","2280","image-slider-response","436","2.0.0","747231","parq0lw64nk","lion","2","stimuli\EXEMPLAR\USED\Erazor2.jpg","","","","","","","","","","","3"
"","1782","html-button-response","437","2.0.0","749016","parq0lw64nk","lion","0","Which of these items did you see before?","","","","","Test","","true","[""stimuli\\EXEMPLAR\\USED\\Edinosaur1.jpg"",""stimuli\\EXEMPLAR\\USED\\Edinosaur2.jpg""]","stimuli\EXEMPLAR\USED\Edinosaur1.jpg","stimuli\EXEMPLAR\USED\Edinosaur1.jpg",""
"","1962","image-slider-response","438","2.0.0","750980","parq0lw64nk","lion","2","stimuli\EXEMPLAR\USED\Edinosaur1.jpg","","","","","","","","","","","3"
"","1383","html-button-response","439","2.0.0","752364","parq0lw64nk","lion","1","Which of these items did you see before?","","","","","Test","","true","[""stimuli\\EXEMPLAR\\USED\\Edispenser2.jpg"",""stimuli\\EXEMPLAR\\USED\\Edispenser1.jpg""]","stimuli\EXEMPLAR\USED\Edispenser1.jpg","stimuli\EXEMPLAR\USED\Edispenser1.jpg",""
"","1799","image-slider-response","440","2.0.0","754164","parq0lw64nk","lion","3","stimuli\EXEMPLAR\USED\Edispenser1.jpg","","","","","","","","","","","3"
"","1935","html-button-response","441","2.0.0","756099","parq0lw64nk","lion","1","Which of these items did you see before?","","","","","Test","","true","[""stimuli\\EXEMPLAR\\USED\\Etoyplane1.jpg"",""stimuli\\EXEMPLAR\\USED\\Etoyplane2.jpg""]","stimuli\EXEMPLAR\USED\Etoyplane2.jpg","stimuli\EXEMPLAR\USED\Etoyplane2.jpg",""
"","1481","image-slider-response","442","2.0.0","757582","parq0lw64nk","lion","1","stimuli\EXEMPLAR\USED\Etoyplane2.jpg","","","","","","","","","","","3"
"","1948","html-button-response","443","2.0.0","759531","parq0lw64nk","lion","0","Which of these items did you see before?","","","","","Test","","true","[""stimuli\\EXEMPLAR\\USED\\Ehoe2.jpg"",""stimuli\\EXEMPLAR\\USED\\Ehoe1.jpg""]","stimuli\EXEMPLAR\USED\Ehoe2.jpg","stimuli\EXEMPLAR\USED\Ehoe2.jpg",""
"","1515","image-slider-response","444","2.0.0","761048","parq0lw64nk","lion","3","stimuli\EXEMPLAR\USED\Ehoe2.jpg","","","","","","","","","","","3"
"","1999","html-button-response","445","2.0.0","763048","parq0lw64nk","lion","1","Which of these items did you see before?","","","","","Test","","true","[""stimuli\\EXEMPLAR\\USED\\Etoywrench1.jpg"",""stimuli\\EXEMPLAR\\USED\\Etoywrench2.jpg""]","stimuli\EXEMPLAR\USED\Etoywrench2.jpg","stimuli\EXEMPLAR\USED\Etoywrench2.jpg",""
"","2116","image-slider-response","446","2.0.0","765165","parq0lw64nk","lion","4","stimuli\EXEMPLAR\USED\Etoywrench2.jpg","","","","","","","","","","","3"
"","2048","html-button-response","447","2.0.0","767215","parq0lw64nk","lion","0","Which of these items did you see before?","","","","","Test","","true","[""stimuli\\EXEMPLAR\\USED\\Etractor1.jpg"",""stimuli\\EXEMPLAR\\USED\\Etractor2.jpg""]","stimuli\EXEMPLAR\USED\Etractor1.jpg","stimuli\EXEMPLAR\USED\Etractor1.jpg",""
"","1348","image-slider-response","448","2.0.0","768564","parq0lw64nk","lion","1","stimuli\EXEMPLAR\USED\Etractor1.jpg","","","","","","","","","","","3"
"","240503","survey-text","449","2.0.0","1009090","parq0lw64nk","lion","{""experiment_purpose"":""This experiment may have been about the discrepancies between working, short-term, and long-term memory."",""Q1"":""Some details I used were if the object was placed weird or I did not know what is was. Some images also had more details than others. "",""technical_issues"":""No""}","","","","","","","","","","","",""
