"success","rt","trial_type","trial_index","plugin_version","time_elapsed","random_id","participant","response","stimulus","timeout","failed_images","failed_audio","failed_video","trial_phase","repeated","correct","choice_images","correct_image","choice","slider_start"
"true","1108","fullscreen","0","2.0.0","2115","pcfdh9f6su2","p73","","","","","","","","","","","","",""
"","2636","survey-text","1","2.0.0","4757","pcfdh9f6su2","p73","{""participant_id"":""p73""}","","","","","","","","","","","",""
"","1386","html-keyboard-response","2","2.0.0","6144","pcfdh9f6su2","p73","p","<p>Welcome to the Massive Memory Experiment. Press any key to move on. </p>","","","","","","","","","","",""
"","39438","html-keyboard-response","3","2.0.0","45584","pcfdh9f6su2","p73"," ","
      <div style='width:900px;margin: auto;'><p>In the first section you will see a stream of images, with fixation crosses in between each image.</p>
      <p>Each image will remain on screen for 2 seconds. Your job is to detect images that you have seen before within the experiment. Whenever you see an image that you have seen previously <b>at any point in the stream of images</b>, press the spacebar.</p>
      <p>We will let you know if you have correctly or falsely clicked the spacebar on an image by changing the color of the fixation cross.</p>
      <p>If you press the spacebar correctly (the image really did appear earlier), the fixation cross will turn green. If you pressed the spacebar incorrectly, the fixation cross will turn red.</p>
      <p>Please watch carefully to detect the images that show up again!</p>
      <p>Press any key to start.</p></div>
    ","","","","","","","","","","",""
"true","","preload","4","2.0.0","48344","pcfdh9f6su2","p73","","","false","[]","[]","[]","","","","","","",""
"","null","image-keyboard-response","5","2.0.0","50350","pcfdh9f6su2","p73","null","stimuli\STATE\USED\Sbarnmailbox2.jpg","","","","","Memory","false","null","","","",""
"","null","html-keyboard-response","6","2.0.0","50852","pcfdh9f6su2","p73","null","<div style=""font-size:60px; color: black;"">+</div>","","","","","","","","","","",""
"","null","image-keyboard-response","7","2.0.0","52856","pcfdh9f6su2","p73","null","stimuli\STATE\USED\Saccordionsmall1.JPG","","","","","Memory","false","null","","","",""
"","null","html-keyboard-response","8","2.0.0","53359","pcfdh9f6su2","p73","null","<div style=""font-size:60px; color: black;"">+</div>","","","","","","","","","","",""
"","null","image-keyboard-response","9","2.0.0","55364","pcfdh9f6su2","p73","null","stimuli\EXEMPLAR\USED\Erabbit1.jpg","","","","","Memory","false","null","","","",""
"","null","html-keyboard-response","10","2.0.0","55868","pcfdh9f6su2","p73","null","<div style=""font-size:60px; color: black;"">+</div>","","","","","","","","","","",""
"","null","image-keyboard-response","11","2.0.0","57872","pcfdh9f6su2","p73","null","stimuli\STATE\USED\Shandsign1.JPG","","","","","Memory","false","null","","","",""
"","null","html-keyboard-response","12","2.0.0","58375","pcfdh9f6su2","p73","null","<div style=""font-size:60px; color: black;"">+</div>","","","","","","","","","","",""
"","null","image-keyboard-response","13","2.0.0","60379","pcfdh9f6su2","p73","null","stimuli\STATE\USED\Spolarbear1.jpg","","","","","Memory","false","null","","","",""
"","null","html-keyboard-response","14","2.0.0","60882","pcfdh9f6su2","p73","null","<div style=""font-size:60px; color: black;"">+</div>","","","","","","","","","","",""
"","null","image-keyboard-response","15","2.0.0","62886","pcfdh9f6su2","p73","null","stimuli\EXEMPLAR\USED\Etongs2.jpg","","","","","Memory","false","null","","","",""
"","null","html-keyboard-response","16","2.0.0","63388","pcfdh9f6su2","p73","null","<div style=""font-size:60px; color: black;"">+</div>","","","","","","","","","","",""
"","null","image-keyboard-response","17","2.0.0","65391","pcfdh9f6su2","p73","null","stimuli\EXEMPLAR\USED\Ekayak1.jpg","","","","","Memory","false","null","","","",""
"","null","html-keyboard-response","18","2.0.0","65894","pcfdh9f6su2","p73","null","<div style=""font-size:60px; color: black;"">+</div>","","","","","","","","","","",""
"","null","image-keyboard-response","19","2.0.0","67897","pcfdh9f6su2","p73","null","stimuli\STATE\USED\Sseats2.jpg","","","","","Memory","false","null","","","",""
"","null","html-keyboard-response","20","2.0.0","68400","pcfdh9f6su2","p73","null","<div style=""font-size:60px; color: black;"">+</div>","","","","","","","","","","",""
"","null","image-keyboard-response","21","2.0.0","70402","pcfdh9f6su2","p73","null","stimuli\STATE\USED\Spolarbear1.jpg","","","","","Memory","true","null","","","",""
"","null","html-keyboard-response","22","2.0.0","70905","pcfdh9f6su2","p73","null","<div style=""font-size:60px; color: black;"">+</div>","","","","","","","","","","",""
"","null","image-keyboard-response","23","2.0.0","72909","pcfdh9f6su2","p73","null","stimuli\STATE\USED\Sdishes2.JPG","","","","","Memory","false","null","","","",""
"","null","html-keyboard-response","24","2.0.0","73412","pcfdh9f6su2","p73","null","<div style=""font-size:60px; color: black;"">+</div>","","","","","","","","","","",""
"","null","image-keyboard-response","25","2.0.0","75416","pcfdh9f6su2","p73","null","stimuli\EXEMPLAR\USED\Eswimsuit1.jpg","","","","","Memory","false","null","","","",""
"","null","html-keyboard-response","26","2.0.0","75918","pcfdh9f6su2","p73","null","<div style=""font-size:60px; color: black;"">+</div>","","","","","","","","","","",""
"","null","image-keyboard-response","27","2.0.0","77921","pcfdh9f6su2","p73","null","stimuli\STATE\USED\Sbox1.jpg","","","","","Memory","false","null","","","",""
"","null","html-keyboard-response","28","2.0.0","78424","pcfdh9f6su2","p73","null","<div style=""font-size:60px; color: black;"">+</div>","","","","","","","","","","",""
"","null","image-keyboard-response","29","2.0.0","80427","pcfdh9f6su2","p73","null","stimuli\EXEMPLAR\USED\Eicecream2.jpg","","","","","Memory","false","null","","","",""
"","null","html-keyboard-response","30","2.0.0","80930","pcfdh9f6su2","p73","null","<div style=""font-size:60px; color: black;"">+</div>","","","","","","","","","","",""
"","null","image-keyboard-response","31","2.0.0","82934","pcfdh9f6su2","p73","null","stimuli\STATE\USED\Sdishes2.JPG","","","","","Memory","true","null","","","",""
"","null","html-keyboard-response","32","2.0.0","83437","pcfdh9f6su2","p73","null","<div style=""font-size:60px; color: black;"">+</div>","","","","","","","","","","",""
"","null","image-keyboard-response","33","2.0.0","85442","pcfdh9f6su2","p73","null","stimuli\EXEMPLAR\USED\Ehorn1.jpg","","","","","Memory","false","null","","","",""
"","null","html-keyboard-response","34","2.0.0","85945","pcfdh9f6su2","p73","null","<div style=""font-size:60px; color: black;"">+</div>","","","","","","","","","","",""
"","null","image-keyboard-response","35","2.0.0","87949","pcfdh9f6su2","p73","null","stimuli\EXEMPLAR\USED\Etoykeys2.JPG","","","","","Memory","false","null","","","",""
"","null","html-keyboard-response","36","2.0.0","88451","pcfdh9f6su2","p73","null","<div style=""font-size:60px; color: black;"">+</div>","","","","","","","","","","",""
"","null","image-keyboard-response","37","2.0.0","90454","pcfdh9f6su2","p73","null","stimuli\STATE\USED\Sapplesgreenbasket1.jpg","","","","","Memory","false","null","","","",""
"","null","html-keyboard-response","38","2.0.0","90957","pcfdh9f6su2","p73","null","<div style=""font-size:60px; color: black;"">+</div>","","","","","","","","","","",""
"","null","image-keyboard-response","39","2.0.0","92961","pcfdh9f6su2","p73","null","stimuli\EXEMPLAR\USED\Etoyhand1.jpg","","","","","Memory","false","null","","","",""
"","null","html-keyboard-response","40","2.0.0","93463","pcfdh9f6su2","p73","null","<div style=""font-size:60px; color: black;"">+</div>","","","","","","","","","","",""
"","null","image-keyboard-response","41","2.0.0","95467","pcfdh9f6su2","p73","null","stimuli\EXEMPLAR\USED\Ehelmet2.jpg","","","","","Memory","false","null","","","",""
"","null","html-keyboard-response","42","2.0.0","95970","pcfdh9f6su2","p73","null","<div style=""font-size:60px; color: black;"">+</div>","","","","","","","","","","",""
"","null","image-keyboard-response","43","2.0.0","97973","pcfdh9f6su2","p73","null","stimuli\EXEMPLAR\USED\Etoykeys2.JPG","","","","","Memory","true","null","","","",""
"","null","html-keyboard-response","44","2.0.0","98477","pcfdh9f6su2","p73","null","<div style=""font-size:60px; color: black;"">+</div>","","","","","","","","","","",""
"","null","image-keyboard-response","45","2.0.0","100480","pcfdh9f6su2","p73","null","stimuli\EXEMPLAR\USED\Egame2.jpg","","","","","Memory","false","null","","","",""
"","null","html-keyboard-response","46","2.0.0","100982","pcfdh9f6su2","p73","null","<div style=""font-size:60px; color: black;"">+</div>","","","","","","","","","","",""
"","null","image-keyboard-response","47","2.0.0","102986","pcfdh9f6su2","p73","null","stimuli\EXEMPLAR\USED\Emoney1.jpg","","","","","Memory","false","null","","","",""
"","null","html-keyboard-response","48","2.0.0","103489","pcfdh9f6su2","p73","null","<div style=""font-size:60px; color: black;"">+</div>","","","","","","","","","","",""
"","null","image-keyboard-response","49","2.0.0","105492","pcfdh9f6su2","p73","null","stimuli\STATE\USED\Sdrum2.jpg","","","","","Memory","false","null","","","",""
"","null","html-keyboard-response","50","2.0.0","105995","pcfdh9f6su2","p73","null","<div style=""font-size:60px; color: black;"">+</div>","","","","","","","","","","",""
"","null","image-keyboard-response","51","2.0.0","107999","pcfdh9f6su2","p73","null","stimuli\EXEMPLAR\USED\Escroll2.jpg","","","","","Memory","false","null","","","",""
"","null","html-keyboard-response","52","2.0.0","108502","pcfdh9f6su2","p73","null","<div style=""font-size:60px; color: black;"">+</div>","","","","","","","","","","",""
"","null","image-keyboard-response","53","2.0.0","110506","pcfdh9f6su2","p73","null","stimuli\EXEMPLAR\USED\Ecake2.jpg","","","","","Memory","false","null","","","",""
"","null","html-keyboard-response","54","2.0.0","111008","pcfdh9f6su2","p73","null","<div style=""font-size:60px; color: black;"">+</div>","","","","","","","","","","",""
"","null","image-keyboard-response","55","2.0.0","113012","pcfdh9f6su2","p73","null","stimuli\EXEMPLAR\USED\Emoney1.jpg","","","","","Memory","true","null","","","",""
"","null","html-keyboard-response","56","2.0.0","113514","pcfdh9f6su2","p73","null","<div style=""font-size:60px; color: black;"">+</div>","","","","","","","","","","",""
"","null","image-keyboard-response","57","2.0.0","115516","pcfdh9f6su2","p73","null","stimuli\STATE\USED\Spie2.JPG","","","","","Memory","false","null","","","",""
"","null","html-keyboard-response","58","2.0.0","116019","pcfdh9f6su2","p73","null","<div style=""font-size:60px; color: black;"">+</div>","","","","","","","","","","",""
"","null","image-keyboard-response","59","2.0.0","118023","pcfdh9f6su2","p73","null","stimuli\STATE\USED\Seggplant1.jpg","","","","","Memory","false","null","","","",""
"","null","html-keyboard-response","60","2.0.0","118525","pcfdh9f6su2","p73","null","<div style=""font-size:60px; color: black;"">+</div>","","","","","","","","","","",""
"","null","image-keyboard-response","61","2.0.0","120528","pcfdh9f6su2","p73","null","stimuli\STATE\USED\Sdresser2.jpg","","","","","Memory","false","null","","","",""
"","null","html-keyboard-response","62","2.0.0","121030","pcfdh9f6su2","p73","null","<div style=""font-size:60px; color: black;"">+</div>","","","","","","","","","","",""
"","null","image-keyboard-response","63","2.0.0","123034","pcfdh9f6su2","p73","null","stimuli\EXEMPLAR\USED\Eballoon1.jpg","","","","","Memory","false","null","","","",""
"","null","html-keyboard-response","64","2.0.0","123537","pcfdh9f6su2","p73","null","<div style=""font-size:60px; color: black;"">+</div>","","","","","","","","","","",""
"","null","image-keyboard-response","65","2.0.0","125540","pcfdh9f6su2","p73","null","stimuli\STATE\USED\Sschoolbag1.JPG","","","","","Memory","false","null","","","",""
"","null","html-keyboard-response","66","2.0.0","126043","pcfdh9f6su2","p73","null","<div style=""font-size:60px; color: black;"">+</div>","","","","","","","","","","",""
"","null","image-keyboard-response","67","2.0.0","128047","pcfdh9f6su2","p73","null","stimuli\STATE\USED\Speppers1.jpg","","","","","Memory","false","null","","","",""
"","null","html-keyboard-response","68","2.0.0","128549","pcfdh9f6su2","p73","null","<div style=""font-size:60px; color: black;"">+</div>","","","","","","","","","","",""
"","null","image-keyboard-response","69","2.0.0","130555","pcfdh9f6su2","p73","null","stimuli\EXEMPLAR\USED\Eglobe1.jpg","","","","","Memory","false","null","","","",""
"","null","html-keyboard-response","70","2.0.0","131057","pcfdh9f6su2","p73","null","<div style=""font-size:60px; color: black;"">+</div>","","","","","","","","","","",""
"","null","image-keyboard-response","71","2.0.0","133061","pcfdh9f6su2","p73","null","stimuli\EXEMPLAR\USED\Eballoon1.jpg","","","","","Memory","true","null","","","",""
"","null","html-keyboard-response","72","2.0.0","133564","pcfdh9f6su2","p73","null","<div style=""font-size:60px; color: black;"">+</div>","","","","","","","","","","",""
"","null","image-keyboard-response","73","2.0.0","135567","pcfdh9f6su2","p73","null","stimuli\STATE\USED\Schinesefoodbox2.jpg","","","","","Memory","false","null","","","",""
"","null","html-keyboard-response","74","2.0.0","136070","pcfdh9f6su2","p73","null","<div style=""font-size:60px; color: black;"">+</div>","","","","","","","","","","",""
"","null","image-keyboard-response","75","2.0.0","138074","pcfdh9f6su2","p73","null","stimuli\STATE\USED\Slockbox2.jpg","","","","","Memory","false","null","","","",""
"","null","html-keyboard-response","76","2.0.0","138577","pcfdh9f6su2","p73","null","<div style=""font-size:60px; color: black;"">+</div>","","","","","","","","","","",""
"","null","image-keyboard-response","77","2.0.0","140580","pcfdh9f6su2","p73","null","stimuli\STATE\USED\Sbrushes2.jpg","","","","","Memory","false","null","","","",""
"","null","html-keyboard-response","78","2.0.0","141083","pcfdh9f6su2","p73","null","<div style=""font-size:60px; color: black;"">+</div>","","","","","","","","","","",""
"","null","image-keyboard-response","79","2.0.0","143086","pcfdh9f6su2","p73","null","stimuli\STATE\USED\Sbureau1.JPG","","","","","Memory","false","null","","","",""
"","null","html-keyboard-response","80","2.0.0","143589","pcfdh9f6su2","p73","null","<div style=""font-size:60px; color: black;"">+</div>","","","","","","","","","","",""
"","null","image-keyboard-response","81","2.0.0","145594","pcfdh9f6su2","p73","null","stimuli\EXEMPLAR\USED\Echopsticks1.jpg","","","","","Memory","false","null","","","",""
"","null","html-keyboard-response","82","2.0.0","146097","pcfdh9f6su2","p73","null","<div style=""font-size:60px; color: black;"">+</div>","","","","","","","","","","",""
"","null","image-keyboard-response","83","2.0.0","148101","pcfdh9f6su2","p73","null","stimuli\STATE\USED\Smedicaltape2.jpg","","","","","Memory","false","null","","","",""
"","null","html-keyboard-response","84","2.0.0","148604","pcfdh9f6su2","p73","null","<div style=""font-size:60px; color: black;"">+</div>","","","","","","","","","","",""
"","null","image-keyboard-response","85","2.0.0","150608","pcfdh9f6su2","p73","null","stimuli\STATE\USED\Sdishwasher2.jpg","","","","","Memory","false","null","","","",""
"","null","html-keyboard-response","86","2.0.0","151110","pcfdh9f6su2","p73","null","<div style=""font-size:60px; color: black;"">+</div>","","","","","","","","","","",""
"","null","image-keyboard-response","87","2.0.0","153114","pcfdh9f6su2","p73","null","stimuli\EXEMPLAR\USED\Econe2.jpg","","","","","Memory","false","null","","","",""
"","null","html-keyboard-response","88","2.0.0","153617","pcfdh9f6su2","p73","null","<div style=""font-size:60px; color: black;"">+</div>","","","","","","","","","","",""
"","null","image-keyboard-response","89","2.0.0","155621","pcfdh9f6su2","p73","null","stimuli\STATE\USED\Saccordion2.jpg","","","","","Memory","false","null","","","",""
"","null","html-keyboard-response","90","2.0.0","156124","pcfdh9f6su2","p73","null","<div style=""font-size:60px; color: black;"">+</div>","","","","","","","","","","",""
"","null","image-keyboard-response","91","2.0.0","158128","pcfdh9f6su2","p73","null","stimuli\EXEMPLAR\USED\Ehotairballoon2.jpg","","","","","Memory","false","null","","","",""
"","null","html-keyboard-response","92","2.0.0","158630","pcfdh9f6su2","p73","null","<div style=""font-size:60px; color: black;"">+</div>","","","","","","","","","","",""
"","null","image-keyboard-response","93","2.0.0","160634","pcfdh9f6su2","p73","null","stimuli\STATE\USED\Smetronome1.jpg","","","","","Memory","false","null","","","",""
"","null","html-keyboard-response","94","2.0.0","161138","pcfdh9f6su2","p73","null","<div style=""font-size:60px; color: black;"">+</div>","","","","","","","","","","",""
"","null","image-keyboard-response","95","2.0.0","163142","pcfdh9f6su2","p73","null","stimuli\EXEMPLAR\USED\Ehoe1.jpg","","","","","Memory","false","null","","","",""
"","null","html-keyboard-response","96","2.0.0","163643","pcfdh9f6su2","p73","null","<div style=""font-size:60px; color: black;"">+</div>","","","","","","","","","","",""
"","null","image-keyboard-response","97","2.0.0","165647","pcfdh9f6su2","p73","null","stimuli\STATE\USED\Sscales2.jpg","","","","","Memory","false","null","","","",""
"","null","html-keyboard-response","98","2.0.0","166149","pcfdh9f6su2","p73","null","<div style=""font-size:60px; color: black;"">+</div>","","","","","","","","","","",""
"","null","image-keyboard-response","99","2.0.0","168153","pcfdh9f6su2","p73","null","stimuli\STATE\USED\Sbabytoy2.JPG","","","","","Memory","false","null","","","",""
"","null","html-keyboard-response","100","2.0.0","168656","pcfdh9f6su2","p73","null","<div style=""font-size:60px; color: black;"">+</div>","","","","","","","","","","",""
"","null","image-keyboard-response","101","2.0.0","170660","pcfdh9f6su2","p73","null","stimuli\STATE\USED\Spiggybank1.jpg","","","","","Memory","false","null","","","",""
"","null","html-keyboard-response","102","2.0.0","171163","pcfdh9f6su2","p73","null","<div style=""font-size:60px; color: black;"">+</div>","","","","","","","","","","",""
"","null","image-keyboard-response","103","2.0.0","173175","pcfdh9f6su2","p73","null","stimuli\EXEMPLAR\USED\Ehoe1.jpg","","","","","Memory","true","null","","","",""
"","null","html-keyboard-response","104","2.0.0","173678","pcfdh9f6su2","p73","null","<div style=""font-size:60px; color: black;"">+</div>","","","","","","","","","","",""
"","null","image-keyboard-response","105","2.0.0","175681","pcfdh9f6su2","p73","null","stimuli\EXEMPLAR\USED\Etoyplane2.jpg","","","","","Memory","false","null","","","",""
"","null","html-keyboard-response","106","2.0.0","176183","pcfdh9f6su2","p73","null","<div style=""font-size:60px; color: black;"">+</div>","","","","","","","","","","",""
"","3545","html-button-response","107","2.0.0","179731","pcfdh9f6su2","p73","0","Are you still there?","","","","","Attention Check","","","","","",""
"","null","image-keyboard-response","108","2.0.0","181733","pcfdh9f6su2","p73","null","stimuli\STATE\USED\Siron2.jpg","","","","","Memory","false","null","","","",""
"","null","html-keyboard-response","109","2.0.0","182236","pcfdh9f6su2","p73","null","<div style=""font-size:60px; color: black;"">+</div>","","","","","","","","","","",""
"","null","image-keyboard-response","110","2.0.0","184240","pcfdh9f6su2","p73","null","stimuli\STATE\USED\Sapple1.jpg","","","","","Memory","false","null","","","",""
"","null","html-keyboard-response","111","2.0.0","184743","pcfdh9f6su2","p73","null","<div style=""font-size:60px; color: black;"">+</div>","","","","","","","","","","",""
"","null","image-keyboard-response","112","2.0.0","186745","pcfdh9f6su2","p73","null","stimuli\EXEMPLAR\USED\Eteapot1.JPG","","","","","Memory","false","null","","","",""
"","null","html-keyboard-response","113","2.0.0","187248","pcfdh9f6su2","p73","null","<div style=""font-size:60px; color: black;"">+</div>","","","","","","","","","","",""
"","null","image-keyboard-response","114","2.0.0","189252","pcfdh9f6su2","p73","null","stimuli\EXEMPLAR\USED\Etoyplane2.jpg","","","","","Memory","true","null","","","",""
"","null","html-keyboard-response","115","2.0.0","189754","pcfdh9f6su2","p73","null","<div style=""font-size:60px; color: black;"">+</div>","","","","","","","","","","",""
"","null","image-keyboard-response","116","2.0.0","191756","pcfdh9f6su2","p73","null","stimuli\STATE\USED\Sredcabbage2.jpg","","","","","Memory","false","null","","","",""
"","null","html-keyboard-response","117","2.0.0","192258","pcfdh9f6su2","p73","null","<div style=""font-size:60px; color: black;"">+</div>","","","","","","","","","","",""
"","null","image-keyboard-response","118","2.0.0","194261","pcfdh9f6su2","p73","null","stimuli\STATE\USED\Sphone2.JPG","","","","","Memory","false","null","","","",""
"","null","html-keyboard-response","119","2.0.0","194764","pcfdh9f6su2","p73","null","<div style=""font-size:60px; color: black;"">+</div>","","","","","","","","","","",""
"","null","image-keyboard-response","120","2.0.0","196766","pcfdh9f6su2","p73","null","stimuli\STATE\USED\Sdie1.jpg","","","","","Memory","false","null","","","",""
"","null","html-keyboard-response","121","2.0.0","197268","pcfdh9f6su2","p73","null","<div style=""font-size:60px; color: black;"">+</div>","","","","","","","","","","",""
"","null","image-keyboard-response","122","2.0.0","199272","pcfdh9f6su2","p73","null","stimuli\EXEMPLAR\USED\Edispenser2.jpg","","","","","Memory","false","null","","","",""
"","null","html-keyboard-response","123","2.0.0","199775","pcfdh9f6su2","p73","null","<div style=""font-size:60px; color: black;"">+</div>","","","","","","","","","","",""
"","null","image-keyboard-response","124","2.0.0","201779","pcfdh9f6su2","p73","null","stimuli\EXEMPLAR\USED\Eladder1.jpg","","","","","Memory","false","null","","","",""
"","null","html-keyboard-response","125","2.0.0","202281","pcfdh9f6su2","p73","null","<div style=""font-size:60px; color: black;"">+</div>","","","","","","","","","","",""
"","null","image-keyboard-response","126","2.0.0","204285","pcfdh9f6su2","p73","null","stimuli\EXEMPLAR\USED\Ebunny2.jpg","","","","","Memory","false","null","","","",""
"","null","html-keyboard-response","127","2.0.0","204788","pcfdh9f6su2","p73","null","<div style=""font-size:60px; color: black;"">+</div>","","","","","","","","","","",""
"","null","image-keyboard-response","128","2.0.0","206793","pcfdh9f6su2","p73","null","stimuli\EXEMPLAR\USED\Ebread2.jpg","","","","","Memory","false","null","","","",""
"","null","html-keyboard-response","129","2.0.0","207297","pcfdh9f6su2","p73","null","<div style=""font-size:60px; color: black;"">+</div>","","","","","","","","","","",""
"","null","image-keyboard-response","130","2.0.0","209299","pcfdh9f6su2","p73","null","stimuli\EXEMPLAR\USED\Edispenser2.jpg","","","","","Memory","true","null","","","",""
"","null","html-keyboard-response","131","2.0.0","209802","pcfdh9f6su2","p73","null","<div style=""font-size:60px; color: black;"">+</div>","","","","","","","","","","",""
"","null","image-keyboard-response","132","2.0.0","211806","pcfdh9f6su2","p73","null","stimuli\STATE\USED\Scontainer2.JPG","","","","","Memory","false","null","","","",""
"","null","html-keyboard-response","133","2.0.0","212309","pcfdh9f6su2","p73","null","<div style=""font-size:60px; color: black;"">+</div>","","","","","","","","","","",""
"","null","image-keyboard-response","134","2.0.0","214312","pcfdh9f6su2","p73","null","stimuli\STATE\USED\Sbriefcasemetal1.JPG","","","","","Memory","false","null","","","",""
"","null","html-keyboard-response","135","2.0.0","214815","pcfdh9f6su2","p73","null","<div style=""font-size:60px; color: black;"">+</div>","","","","","","","","","","",""
"","null","image-keyboard-response","136","2.0.0","216819","pcfdh9f6su2","p73","null","stimuli\EXEMPLAR\USED\Esunglasses2.jpg","","","","","Memory","false","null","","","",""
"","null","html-keyboard-response","137","2.0.0","217322","pcfdh9f6su2","p73","null","<div style=""font-size:60px; color: black;"">+</div>","","","","","","","","","","",""
"","null","image-keyboard-response","138","2.0.0","219325","pcfdh9f6su2","p73","null","stimuli\STATE\USED\Sbelt1.jpg","","","","","Memory","false","null","","","",""
"","null","html-keyboard-response","139","2.0.0","219827","pcfdh9f6su2","p73","null","<div style=""font-size:60px; color: black;"">+</div>","","","","","","","","","","",""
"","null","image-keyboard-response","140","2.0.0","221831","pcfdh9f6su2","p73","null","stimuli\EXEMPLAR\USED\Eturtle2.jpg","","","","","Memory","false","null","","","",""
"","null","html-keyboard-response","141","2.0.0","222334","pcfdh9f6su2","p73","null","<div style=""font-size:60px; color: black;"">+</div>","","","","","","","","","","",""
"","null","image-keyboard-response","142","2.0.0","224337","pcfdh9f6su2","p73","null","stimuli\STATE\USED\Stypewriter2.jpg","","","","","Memory","false","null","","","",""
"","null","html-keyboard-response","143","2.0.0","224840","pcfdh9f6su2","p73","null","<div style=""font-size:60px; color: black;"">+</div>","","","","","","","","","","",""
"","null","image-keyboard-response","144","2.0.0","226844","pcfdh9f6su2","p73","null","stimuli\STATE\USED\Sclipboard1.jpg","","","","","Memory","false","null","","","",""
"","null","html-keyboard-response","145","2.0.0","227346","pcfdh9f6su2","p73","null","<div style=""font-size:60px; color: black;"">+</div>","","","","","","","","","","",""
"","null","image-keyboard-response","146","2.0.0","229350","pcfdh9f6su2","p73","null","stimuli\STATE\USED\Shandmirror1.jpg","","","","","Memory","false","null","","","",""
"","null","html-keyboard-response","147","2.0.0","229852","pcfdh9f6su2","p73","null","<div style=""font-size:60px; color: black;"">+</div>","","","","","","","","","","",""
"","null","image-keyboard-response","148","2.0.0","231857","pcfdh9f6su2","p73","null","stimuli\EXEMPLAR\USED\Etrain1.jpg","","","","","Memory","false","null","","","",""
"","null","html-keyboard-response","149","2.0.0","232360","pcfdh9f6su2","p73","null","<div style=""font-size:60px; color: black;"">+</div>","","","","","","","","","","",""
"","null","image-keyboard-response","150","2.0.0","234363","pcfdh9f6su2","p73","null","stimuli\EXEMPLAR\USED\Espraybottle2.jpg","","","","","Memory","false","null","","","",""
"","null","html-keyboard-response","151","2.0.0","234865","pcfdh9f6su2","p73","null","<div style=""font-size:60px; color: black;"">+</div>","","","","","","","","","","",""
"","null","image-keyboard-response","152","2.0.0","236870","pcfdh9f6su2","p73","null","stimuli\EXEMPLAR\USED\Ewineglass1.jpg","","","","","Memory","false","null","","","",""
"","null","html-keyboard-response","153","2.0.0","237373","pcfdh9f6su2","p73","null","<div style=""font-size:60px; color: black;"">+</div>","","","","","","","","","","",""
"","null","image-keyboard-response","154","2.0.0","239385","pcfdh9f6su2","p73","null","stimuli\STATE\USED\Shandmirror1.jpg","","","","","Memory","true","null","","","",""
"","null","html-keyboard-response","155","2.0.0","239887","pcfdh9f6su2","p73","null","<div style=""font-size:60px; color: black;"">+</div>","","","","","","","","","","",""
"","null","image-keyboard-response","156","2.0.0","241890","pcfdh9f6su2","p73","null","stimuli\EXEMPLAR\USED\Eguitar2.jpg","","","","","Memory","false","null","","","",""
"","null","html-keyboard-response","157","2.0.0","242394","pcfdh9f6su2","p73","null","<div style=""font-size:60px; color: black;"">+</div>","","","","","","","","","","",""
"","null","image-keyboard-response","158","2.0.0","244397","pcfdh9f6su2","p73","null","stimuli\EXEMPLAR\USED\Erazor1.jpg","","","","","Memory","false","null","","","",""
"","null","html-keyboard-response","159","2.0.0","244900","pcfdh9f6su2","p73","null","<div style=""font-size:60px; color: black;"">+</div>","","","","","","","","","","",""
"","null","image-keyboard-response","160","2.0.0","246904","pcfdh9f6su2","p73","null","stimuli\STATE\USED\Sscanner1.JPG","","","","","Memory","false","null","","","",""
"","null","html-keyboard-response","161","2.0.0","247406","pcfdh9f6su2","p73","null","<div style=""font-size:60px; color: black;"">+</div>","","","","","","","","","","",""
"","null","image-keyboard-response","162","2.0.0","249411","pcfdh9f6su2","p73","null","stimuli\EXEMPLAR\USED\Enozzle1.jpg","","","","","Memory","false","null","","","",""
"","null","html-keyboard-response","163","2.0.0","249913","pcfdh9f6su2","p73","null","<div style=""font-size:60px; color: black;"">+</div>","","","","","","","","","","",""
"","null","image-keyboard-response","164","2.0.0","251916","pcfdh9f6su2","p73","null","stimuli\EXEMPLAR\USED\Esantahat2.jpg","","","","","Memory","false","null","","","",""
"","null","html-keyboard-response","165","2.0.0","252419","pcfdh9f6su2","p73","null","<div style=""font-size:60px; color: black;"">+</div>","","","","","","","","","","",""
"","null","image-keyboard-response","166","2.0.0","254423","pcfdh9f6su2","p73","null","stimuli\STATE\USED\Sstoplight2.jpg","","","","","Memory","false","null","","","",""
"","null","html-keyboard-response","167","2.0.0","254927","pcfdh9f6su2","p73","null","<div style=""font-size:60px; color: black;"">+</div>","","","","","","","","","","",""
"","null","image-keyboard-response","168","2.0.0","256930","pcfdh9f6su2","p73","null","stimuli\STATE\USED\Sscanner1.JPG","","","","","Memory","true","null","","","",""
"","null","html-keyboard-response","169","2.0.0","257433","pcfdh9f6su2","p73","null","<div style=""font-size:60px; color: black;"">+</div>","","","","","","","","","","",""
"","null","image-keyboard-response","170","2.0.0","259437","pcfdh9f6su2","p73","null","stimuli\STATE\USED\Sbook1.JPG","","","","","Memory","false","null","","","",""
"","null","html-keyboard-response","171","2.0.0","259941","pcfdh9f6su2","p73","null","<div style=""font-size:60px; color: black;"">+</div>","","","","","","","","","","",""
"","null","image-keyboard-response","172","2.0.0","261944","pcfdh9f6su2","p73","null","stimuli\STATE\USED\Srhino2.jpg","","","","","Memory","false","null","","","",""
"","null","html-keyboard-response","173","2.0.0","262447","pcfdh9f6su2","p73","null","<div style=""font-size:60px; color: black;"">+</div>","","","","","","","","","","",""
"","null","image-keyboard-response","174","2.0.0","264451","pcfdh9f6su2","p73","null","stimuli\EXEMPLAR\USED\Emedal2.jpg","","","","","Memory","false","null","","","",""
"","null","html-keyboard-response","175","2.0.0","264953","pcfdh9f6su2","p73","null","<div style=""font-size:60px; color: black;"">+</div>","","","","","","","","","","",""
"","null","image-keyboard-response","176","2.0.0","266956","pcfdh9f6su2","p73","null","stimuli\STATE\USED\Scooker1.jpg","","","","","Memory","false","null","","","",""
"","null","html-keyboard-response","177","2.0.0","267459","pcfdh9f6su2","p73","null","<div style=""font-size:60px; color: black;"">+</div>","","","","","","","","","","",""
"","null","image-keyboard-response","178","2.0.0","269463","pcfdh9f6su2","p73","null","stimuli\EXEMPLAR\USED\Echocolatebar2.jpg","","","","","Memory","false","null","","","",""
"","null","html-keyboard-response","179","2.0.0","269966","pcfdh9f6su2","p73","null","<div style=""font-size:60px; color: black;"">+</div>","","","","","","","","","","",""
"","null","image-keyboard-response","180","2.0.0","271969","pcfdh9f6su2","p73","null","stimuli\STATE\USED\Sflask2.jpg","","","","","Memory","false","null","","","",""
"","null","html-keyboard-response","181","2.0.0","272471","pcfdh9f6su2","p73","null","<div style=""font-size:60px; color: black;"">+</div>","","","","","","","","","","",""
"","null","image-keyboard-response","182","2.0.0","274475","pcfdh9f6su2","p73","null","stimuli\EXEMPLAR\USED\Epotatochips2.jpg","","","","","Memory","false","null","","","",""
"","null","html-keyboard-response","183","2.0.0","274978","pcfdh9f6su2","p73","null","<div style=""font-size:60px; color: black;"">+</div>","","","","","","","","","","",""
"","null","image-keyboard-response","184","2.0.0","276981","pcfdh9f6su2","p73","null","stimuli\STATE\USED\Sgiftbag2.jpg","","","","","Memory","false","null","","","",""
"","null","html-keyboard-response","185","2.0.0","277484","pcfdh9f6su2","p73","null","<div style=""font-size:60px; color: black;"">+</div>","","","","","","","","","","",""
"","null","image-keyboard-response","186","2.0.0","279488","pcfdh9f6su2","p73","null","stimuli\EXEMPLAR\USED\Echocolatebar2.jpg","","","","","Memory","true","null","","","",""
"","null","html-keyboard-response","187","2.0.0","279990","pcfdh9f6su2","p73","null","<div style=""font-size:60px; color: black;"">+</div>","","","","","","","","","","",""
"","null","image-keyboard-response","188","2.0.0","281994","pcfdh9f6su2","p73","null","stimuli\EXEMPLAR\USED\Emuffin2.jpg","","","","","Memory","false","null","","","",""
"","null","html-keyboard-response","189","2.0.0","282497","pcfdh9f6su2","p73","null","<div style=""font-size:60px; color: black;"">+</div>","","","","","","","","","","",""
"","null","image-keyboard-response","190","2.0.0","284501","pcfdh9f6su2","p73","null","stimuli\STATE\USED\Shandshake2.JPG","","","","","Memory","false","null","","","",""
"","null","html-keyboard-response","191","2.0.0","285003","pcfdh9f6su2","p73","null","<div style=""font-size:60px; color: black;"">+</div>","","","","","","","","","","",""
"","null","image-keyboard-response","192","2.0.0","287008","pcfdh9f6su2","p73","null","stimuli\STATE\USED\Ssweater1.jpg","","","","","Memory","false","null","","","",""
"","null","html-keyboard-response","193","2.0.0","287511","pcfdh9f6su2","p73","null","<div style=""font-size:60px; color: black;"">+</div>","","","","","","","","","","",""
"","null","image-keyboard-response","194","2.0.0","289514","pcfdh9f6su2","p73","null","stimuli\STATE\USED\Spicnicbasket1.jpg","","","","","Memory","false","null","","","",""
"","null","html-keyboard-response","195","2.0.0","290017","pcfdh9f6su2","p73","null","<div style=""font-size:60px; color: black;"">+</div>","","","","","","","","","","",""
"","null","image-keyboard-response","196","2.0.0","292021","pcfdh9f6su2","p73","null","stimuli\EXEMPLAR\USED\Efolder1.jpg","","","","","Memory","false","null","","","",""
"","null","html-keyboard-response","197","2.0.0","292524","pcfdh9f6su2","p73","null","<div style=""font-size:60px; color: black;"">+</div>","","","","","","","","","","",""
"","null","image-keyboard-response","198","2.0.0","294526","pcfdh9f6su2","p73","null","stimuli\STATE\USED\Snapkins1.jpg","","","","","Memory","false","null","","","",""
"","null","html-keyboard-response","199","2.0.0","295028","pcfdh9f6su2","p73","null","<div style=""font-size:60px; color: black;"">+</div>","","","","","","","","","","",""
"","null","image-keyboard-response","200","2.0.0","297032","pcfdh9f6su2","p73","null","stimuli\EXEMPLAR\USED\Estarfish2.jpg","","","","","Memory","false","null","","","",""
"","null","html-keyboard-response","201","2.0.0","297535","pcfdh9f6su2","p73","null","<div style=""font-size:60px; color: black;"">+</div>","","","","","","","","","","",""
"","null","image-keyboard-response","202","2.0.0","299538","pcfdh9f6su2","p73","null","stimuli\STATE\USED\Spadlock1.jpg","","","","","Memory","false","null","","","",""
"","null","html-keyboard-response","203","2.0.0","300042","pcfdh9f6su2","p73","null","<div style=""font-size:60px; color: black;"">+</div>","","","","","","","","","","",""
"","null","image-keyboard-response","204","2.0.0","302045","pcfdh9f6su2","p73","null","stimuli\STATE\USED\Sdryer1.jpg","","","","","Memory","false","null","","","",""
"","null","html-keyboard-response","205","2.0.0","302547","pcfdh9f6su2","p73","null","<div style=""font-size:60px; color: black;"">+</div>","","","","","","","","","","",""
"","null","image-keyboard-response","206","2.0.0","304551","pcfdh9f6su2","p73","null","stimuli\STATE\USED\Snapkins1.jpg","","","","","Memory","true","null","","","",""
"","null","html-keyboard-response","207","2.0.0","305053","pcfdh9f6su2","p73","null","<div style=""font-size:60px; color: black;"">+</div>","","","","","","","","","","",""
"","null","image-keyboard-response","208","2.0.0","307057","pcfdh9f6su2","p73","null","stimuli\STATE\USED\Sbooks2.JPG","","","","","Memory","false","null","","","",""
"","null","html-keyboard-response","209","2.0.0","307560","pcfdh9f6su2","p73","null","<div style=""font-size:60px; color: black;"">+</div>","","","","","","","","","","",""
"","2729","html-button-response","210","2.0.0","310290","pcfdh9f6su2","p73","0","Are you still there?","","","","","Attention Check","","","","","",""
"","null","image-keyboard-response","211","2.0.0","312292","pcfdh9f6su2","p73","null","stimuli\EXEMPLAR\USED\Emitt2.jpg","","","","","Memory","false","null","","","",""
"","null","html-keyboard-response","212","2.0.0","312795","pcfdh9f6su2","p73","null","<div style=""font-size:60px; color: black;"">+</div>","","","","","","","","","","",""
"","null","image-keyboard-response","213","2.0.0","314800","pcfdh9f6su2","p73","null","stimuli\STATE\USED\Sgrinder1.jpg","","","","","Memory","false","null","","","",""
"","null","html-keyboard-response","214","2.0.0","315302","pcfdh9f6su2","p73","null","<div style=""font-size:60px; color: black;"">+</div>","","","","","","","","","","",""
"","null","image-keyboard-response","215","2.0.0","317305","pcfdh9f6su2","p73","null","stimuli\EXEMPLAR\USED\Elog2.jpg","","","","","Memory","false","null","","","",""
"","null","html-keyboard-response","216","2.0.0","317808","pcfdh9f6su2","p73","null","<div style=""font-size:60px; color: black;"">+</div>","","","","","","","","","","",""
"","null","image-keyboard-response","217","2.0.0","319811","pcfdh9f6su2","p73","null","stimuli\STATE\USED\Sgiftbox1.jpg","","","","","Memory","false","null","","","",""
"","null","html-keyboard-response","218","2.0.0","320315","pcfdh9f6su2","p73","null","<div style=""font-size:60px; color: black;"">+</div>","","","","","","","","","","",""
"","null","image-keyboard-response","219","2.0.0","322319","pcfdh9f6su2","p73","null","stimuli\EXEMPLAR\USED\Emitt2.jpg","","","","","Memory","true","null","","","",""
"","null","html-keyboard-response","220","2.0.0","322821","pcfdh9f6su2","p73","null","<div style=""font-size:60px; color: black;"">+</div>","","","","","","","","","","",""
"","null","image-keyboard-response","221","2.0.0","324826","pcfdh9f6su2","p73","null","stimuli\EXEMPLAR\USED\Etoywrench2.jpg","","","","","Memory","false","null","","","",""
"","null","html-keyboard-response","222","2.0.0","325329","pcfdh9f6su2","p73","null","<div style=""font-size:60px; color: black;"">+</div>","","","","","","","","","","",""
"","null","image-keyboard-response","223","2.0.0","327333","pcfdh9f6su2","p73","null","stimuli\STATE\USED\Swaffleiron1.jpg","","","","","Memory","false","null","","","",""
"","null","html-keyboard-response","224","2.0.0","327836","pcfdh9f6su2","p73","null","<div style=""font-size:60px; color: black;"">+</div>","","","","","","","","","","",""
"","null","image-keyboard-response","225","2.0.0","329839","pcfdh9f6su2","p73","null","stimuli\STATE\USED\Sboxwhite1.jpg","","","","","Memory","false","null","","","",""
"","null","html-keyboard-response","226","2.0.0","330342","pcfdh9f6su2","p73","null","<div style=""font-size:60px; color: black;"">+</div>","","","","","","","","","","",""
"","null","image-keyboard-response","227","2.0.0","332346","pcfdh9f6su2","p73","null","stimuli\EXEMPLAR\USED\Estapler2.jpg","","","","","Memory","false","null","","","",""
"","null","html-keyboard-response","228","2.0.0","332849","pcfdh9f6su2","p73","null","<div style=""font-size:60px; color: black;"">+</div>","","","","","","","","","","",""
"","null","image-keyboard-response","229","2.0.0","334852","pcfdh9f6su2","p73","null","stimuli\EXEMPLAR\USED\Etoywrench2.jpg","","","","","Memory","true","null","","","",""
"","null","html-keyboard-response","230","2.0.0","335355","pcfdh9f6su2","p73","null","<div style=""font-size:60px; color: black;"">+</div>","","","","","","","","","","",""
"","null","image-keyboard-response","231","2.0.0","337357","pcfdh9f6su2","p73","null","stimuli\STATE\USED\Sdoughhands2.jpg","","","","","Memory","false","null","","","",""
"","null","html-keyboard-response","232","2.0.0","337860","pcfdh9f6su2","p73","null","<div style=""font-size:60px; color: black;"">+</div>","","","","","","","","","","",""
"","null","image-keyboard-response","233","2.0.0","339863","pcfdh9f6su2","p73","null","stimuli\EXEMPLAR\USED\Elei2.jpg","","","","","Memory","false","null","","","",""
"","null","html-keyboard-response","234","2.0.0","340366","pcfdh9f6su2","p73","null","<div style=""font-size:60px; color: black;"">+</div>","","","","","","","","","","",""
"","null","image-keyboard-response","235","2.0.0","342370","pcfdh9f6su2","p73","null","stimuli\STATE\USED\Sjuiceglass2.JPG","","","","","Memory","false","null","","","",""
"","null","html-keyboard-response","236","2.0.0","342873","pcfdh9f6su2","p73","null","<div style=""font-size:60px; color: black;"">+</div>","","","","","","","","","","",""
"","null","image-keyboard-response","237","2.0.0","344877","pcfdh9f6su2","p73","null","stimuli\STATE\USED\Slaptop2.JPG","","","","","Memory","false","null","","","",""
"","null","html-keyboard-response","238","2.0.0","345379","pcfdh9f6su2","p73","null","<div style=""font-size:60px; color: black;"">+</div>","","","","","","","","","","",""
"","null","image-keyboard-response","239","2.0.0","347382","pcfdh9f6su2","p73","null","stimuli\EXEMPLAR\USED\Etrowel1.jpg","","","","","Memory","false","null","","","",""
"","null","html-keyboard-response","240","2.0.0","347886","pcfdh9f6su2","p73","null","<div style=""font-size:60px; color: black;"">+</div>","","","","","","","","","","",""
"","null","image-keyboard-response","241","2.0.0","349890","pcfdh9f6su2","p73","null","stimuli\EXEMPLAR\USED\Elei2.jpg","","","","","Memory","true","null","","","",""
"","null","html-keyboard-response","242","2.0.0","350395","pcfdh9f6su2","p73","null","<div style=""font-size:60px; color: black;"">+</div>","","","","","","","","","","",""
"","null","image-keyboard-response","243","2.0.0","352400","pcfdh9f6su2","p73","null","stimuli\EXEMPLAR\USED\Ehanger2.jpg","","","","","Memory","false","null","","","",""
"","null","html-keyboard-response","244","2.0.0","352903","pcfdh9f6su2","p73","null","<div style=""font-size:60px; color: black;"">+</div>","","","","","","","","","","",""
"","null","image-keyboard-response","245","2.0.0","354906","pcfdh9f6su2","p73","null","stimuli\EXEMPLAR\USED\Epliers1.jpg","","","","","Memory","false","null","","","",""
"","null","html-keyboard-response","246","2.0.0","355409","pcfdh9f6su2","p73","null","<div style=""font-size:60px; color: black;"">+</div>","","","","","","","","","","",""
"","null","image-keyboard-response","247","2.0.0","357413","pcfdh9f6su2","p73","null","stimuli\STATE\USED\Spestle1.jpg","","","","","Memory","false","null","","","",""
"","null","html-keyboard-response","248","2.0.0","357915","pcfdh9f6su2","p73","null","<div style=""font-size:60px; color: black;"">+</div>","","","","","","","","","","",""
"","null","image-keyboard-response","249","2.0.0","359920","pcfdh9f6su2","p73","null","stimuli\EXEMPLAR\USED\Eremover1.jpg","","","","","Memory","false","null","","","",""
"","null","html-keyboard-response","250","2.0.0","360422","pcfdh9f6su2","p73","null","<div style=""font-size:60px; color: black;"">+</div>","","","","","","","","","","",""
"","null","image-keyboard-response","251","2.0.0","362426","pcfdh9f6su2","p73","null","stimuli\STATE\USED\Sphoneold2.jpg","","","","","Memory","false","null","","","",""
"","null","html-keyboard-response","252","2.0.0","362928","pcfdh9f6su2","p73","null","<div style=""font-size:60px; color: black;"">+</div>","","","","","","","","","","",""
"","null","image-keyboard-response","253","2.0.0","364932","pcfdh9f6su2","p73","null","stimuli\EXEMPLAR\USED\Edinosaur1.jpg","","","","","Memory","false","null","","","",""
"","null","html-keyboard-response","254","2.0.0","365435","pcfdh9f6su2","p73","null","<div style=""font-size:60px; color: black;"">+</div>","","","","","","","","","","",""
"","null","image-keyboard-response","255","2.0.0","367440","pcfdh9f6su2","p73","null","stimuli\EXEMPLAR\USED\Ebell2.jpg","","","","","Memory","false","null","","","",""
"","null","html-keyboard-response","256","2.0.0","367941","pcfdh9f6su2","p73","null","<div style=""font-size:60px; color: black;"">+</div>","","","","","","","","","","",""
"","null","image-keyboard-response","257","2.0.0","369944","pcfdh9f6su2","p73","null","stimuli\EXEMPLAR\USED\Ebonzai2.jpg","","","","","Memory","false","null","","","",""
"","null","html-keyboard-response","258","2.0.0","370447","pcfdh9f6su2","p73","null","<div style=""font-size:60px; color: black;"">+</div>","","","","","","","","","","",""
"","null","image-keyboard-response","259","2.0.0","372450","pcfdh9f6su2","p73","null","stimuli\STATE\USED\Sphoneold2.jpg","","","","","Memory","true","null","","","",""
"","null","html-keyboard-response","260","2.0.0","372953","pcfdh9f6su2","p73","null","<div style=""font-size:60px; color: black;"">+</div>","","","","","","","","","","",""
"","null","image-keyboard-response","261","2.0.0","374957","pcfdh9f6su2","p73","null","stimuli\EXEMPLAR\USED\Ebrick2.jpg","","","","","Memory","false","null","","","",""
"","null","html-keyboard-response","262","2.0.0","375460","pcfdh9f6su2","p73","null","<div style=""font-size:60px; color: black;"">+</div>","","","","","","","","","","",""
"","null","image-keyboard-response","263","2.0.0","377463","pcfdh9f6su2","p73","null","stimuli\STATE\USED\Srainbowslice2.jpg","","","","","Memory","false","null","","","",""
"","null","html-keyboard-response","264","2.0.0","377965","pcfdh9f6su2","p73","null","<div style=""font-size:60px; color: black;"">+</div>","","","","","","","","","","",""
"","null","image-keyboard-response","265","2.0.0","379969","pcfdh9f6su2","p73","null","stimuli\STATE\USED\Sbreadslice1.jpg","","","","","Memory","false","null","","","",""
"","null","html-keyboard-response","266","2.0.0","380472","pcfdh9f6su2","p73","null","<div style=""font-size:60px; color: black;"">+</div>","","","","","","","","","","",""
"","null","image-keyboard-response","267","2.0.0","382476","pcfdh9f6su2","p73","null","stimuli\EXEMPLAR\USED\Etractor2.jpg","","","","","Memory","false","null","","","",""
"","null","html-keyboard-response","268","2.0.0","382978","pcfdh9f6su2","p73","null","<div style=""font-size:60px; color: black;"">+</div>","","","","","","","","","","",""
"","null","image-keyboard-response","269","2.0.0","384984","pcfdh9f6su2","p73","null","stimuli\EXEMPLAR\USED\Ebrick2.jpg","","","","","Memory","true","null","","","",""
"","null","html-keyboard-response","270","2.0.0","385487","pcfdh9f6su2","p73","null","<div style=""font-size:60px; color: black;"">+</div>","","","","","","","","","","",""
"","null","image-keyboard-response","271","2.0.0","387491","pcfdh9f6su2","p73","null","stimuli\EXEMPLAR\USED\Earch2.jpg","","","","","Memory","false","null","","","",""
"","null","html-keyboard-response","272","2.0.0","387993","pcfdh9f6su2","p73","null","<div style=""font-size:60px; color: black;"">+</div>","","","","","","","","","","",""
"","null","image-keyboard-response","273","2.0.0","389997","pcfdh9f6su2","p73","null","stimuli\EXEMPLAR\USED\Ebracelet1.jpg","","","","","Memory","false","null","","","",""
"","null","html-keyboard-response","274","2.0.0","390499","pcfdh9f6su2","p73","null","<div style=""font-size:60px; color: black;"">+</div>","","","","","","","","","","",""
"","null","image-keyboard-response","275","2.0.0","392503","pcfdh9f6su2","p73","null","stimuli\STATE\USED\Sumbrella1.jpg","","","","","Memory","false","null","","","",""
"","null","html-keyboard-response","276","2.0.0","393006","pcfdh9f6su2","p73","null","<div style=""font-size:60px; color: black;"">+</div>","","","","","","","","","","",""
"","null","image-keyboard-response","277","2.0.0","395009","pcfdh9f6su2","p73","null","stimuli\STATE\USED\Spotpan1.JPG","","","","","Memory","false","null","","","",""
"","null","html-keyboard-response","278","2.0.0","395512","pcfdh9f6su2","p73","null","<div style=""font-size:60px; color: black;"">+</div>","","","","","","","","","","",""
"","null","image-keyboard-response","279","2.0.0","397516","pcfdh9f6su2","p73","null","stimuli\STATE\USED\Stiger2.jpg","","","","","Memory","false","null","","","",""
"","null","html-keyboard-response","280","2.0.0","398017","pcfdh9f6su2","p73","null","<div style=""font-size:60px; color: black;"">+</div>","","","","","","","","","","",""
"","null","image-keyboard-response","281","2.0.0","400020","pcfdh9f6su2","p73","null","stimuli\EXEMPLAR\USED\Ewheelchair1.jpg","","","","","Memory","false","null","","","",""
"","null","html-keyboard-response","282","2.0.0","400523","pcfdh9f6su2","p73","null","<div style=""font-size:60px; color: black;"">+</div>","","","","","","","","","","",""
"","null","image-keyboard-response","283","2.0.0","402526","pcfdh9f6su2","p73","null","stimuli\STATE\USED\Shairbrush1.jpg","","","","","Memory","false","null","","","",""
"","null","html-keyboard-response","284","2.0.0","403029","pcfdh9f6su2","p73","null","<div style=""font-size:60px; color: black;"">+</div>","","","","","","","","","","",""
"","null","image-keyboard-response","285","2.0.0","405034","pcfdh9f6su2","p73","null","stimuli\EXEMPLAR\USED\Ecalculator1.jpg","","","","","Memory","false","null","","","",""
"","null","html-keyboard-response","286","2.0.0","405537","pcfdh9f6su2","p73","null","<div style=""font-size:60px; color: black;"">+</div>","","","","","","","","","","",""
"","null","image-keyboard-response","287","2.0.0","407541","pcfdh9f6su2","p73","null","stimuli\EXEMPLAR\USED\Eelectricbass1.jpg","","","","","Memory","false","null","","","",""
"","null","html-keyboard-response","288","2.0.0","408043","pcfdh9f6su2","p73","null","<div style=""font-size:60px; color: black;"">+</div>","","","","","","","","","","",""
"","null","image-keyboard-response","289","2.0.0","410047","pcfdh9f6su2","p73","null","stimuli\EXEMPLAR\USED\Eremote2.jpg","","","","","Memory","false","null","","","",""
"","null","html-keyboard-response","290","2.0.0","410549","pcfdh9f6su2","p73","null","<div style=""font-size:60px; color: black;"">+</div>","","","","","","","","","","",""
"","null","image-keyboard-response","291","2.0.0","412553","pcfdh9f6su2","p73","null","stimuli\STATE\USED\Sapplesredbasket1.JPG","","","","","Memory","false","null","","","",""
"","null","html-keyboard-response","292","2.0.0","413056","pcfdh9f6su2","p73","null","<div style=""font-size:60px; color: black;"">+</div>","","","","","","","","","","",""
"","null","image-keyboard-response","293","2.0.0","415060","pcfdh9f6su2","p73","null","stimuli\EXEMPLAR\USED\Etrophy2.jpg","","","","","Memory","false","null","","","",""
"","null","html-keyboard-response","294","2.0.0","415563","pcfdh9f6su2","p73","null","<div style=""font-size:60px; color: black;"">+</div>","","","","","","","","","","",""
"","null","image-keyboard-response","295","2.0.0","417567","pcfdh9f6su2","p73","null","stimuli\STATE\USED\Sseatbelt1.jpg","","","","","Memory","false","null","","","",""
"","null","html-keyboard-response","296","2.0.0","418070","pcfdh9f6su2","p73","null","<div style=""font-size:60px; color: black;"">+</div>","","","","","","","","","","",""
"","null","image-keyboard-response","297","2.0.0","420074","pcfdh9f6su2","p73","null","stimuli\STATE\USED\Sscissors1.JPG","","","","","Memory","false","null","","","",""
"","null","html-keyboard-response","298","2.0.0","420576","pcfdh9f6su2","p73","null","<div style=""font-size:60px; color: black;"">+</div>","","","","","","","","","","",""
"","null","image-keyboard-response","299","2.0.0","422579","pcfdh9f6su2","p73","null","stimuli\STATE\USED\Sapplesredbasket1.JPG","","","","","Memory","true","null","","","",""
"","null","html-keyboard-response","300","2.0.0","423082","pcfdh9f6su2","p73","null","<div style=""font-size:60px; color: black;"">+</div>","","","","","","","","","","",""
"","null","image-keyboard-response","301","2.0.0","425086","pcfdh9f6su2","p73","null","stimuli\EXEMPLAR\USED\Eholepunch2.jpg","","","","","Memory","false","null","","","",""
"","null","html-keyboard-response","302","2.0.0","425589","pcfdh9f6su2","p73","null","<div style=""font-size:60px; color: black;"">+</div>","","","","","","","","","","",""
"","null","image-keyboard-response","303","2.0.0","427593","pcfdh9f6su2","p73","null","stimuli\EXEMPLAR\USED\Eheadphones1.jpg","","","","","Memory","false","null","","","",""
"","null","html-keyboard-response","304","2.0.0","428095","pcfdh9f6su2","p73","null","<div style=""font-size:60px; color: black;"">+</div>","","","","","","","","","","",""
"","null","image-keyboard-response","305","2.0.0","430099","pcfdh9f6su2","p73","null","stimuli\EXEMPLAR\USED\Echeeses2.jpg","","","","","Memory","false","null","","","",""
"","null","html-keyboard-response","306","2.0.0","430602","pcfdh9f6su2","p73","null","<div style=""font-size:60px; color: black;"">+</div>","","","","","","","","","","",""
"","null","image-keyboard-response","307","2.0.0","432605","pcfdh9f6su2","p73","null","stimuli\STATE\USED\Scateringtray1.jpg","","","","","Memory","false","null","","","",""
"","null","html-keyboard-response","308","2.0.0","433107","pcfdh9f6su2","p73","null","<div style=""font-size:60px; color: black;"">+</div>","","","","","","","","","","",""
"","null","image-keyboard-response","309","2.0.0","435110","pcfdh9f6su2","p73","null","stimuli\STATE\USED\Sskull2.jpg","","","","","Memory","false","null","","","",""
"","null","html-keyboard-response","310","2.0.0","435613","pcfdh9f6su2","p73","null","<div style=""font-size:60px; color: black;"">+</div>","","","","","","","","","","",""
"","null","image-keyboard-response","311","2.0.0","437617","pcfdh9f6su2","p73","null","stimuli\EXEMPLAR\USED\Ebinoculars2.jpg","","","","","Memory","false","null","","","",""
"","null","html-keyboard-response","312","2.0.0","438119","pcfdh9f6su2","p73","null","<div style=""font-size:60px; color: black;"">+</div>","","","","","","","","","","",""
"","2900","html-button-response","313","2.0.0","441021","pcfdh9f6su2","p73","0","Are you still there?","","","","","Attention Check","","","","","",""
"","null","image-keyboard-response","314","2.0.0","443027","pcfdh9f6su2","p73","null","stimuli\EXEMPLAR\USED\Eplate1.jpg","","","","","Memory","false","null","","","",""
"","null","html-keyboard-response","315","2.0.0","443530","pcfdh9f6su2","p73","null","<div style=""font-size:60px; color: black;"">+</div>","","","","","","","","","","",""
"","null","image-keyboard-response","316","2.0.0","445536","pcfdh9f6su2","p73","null","stimuli\EXEMPLAR\USED\Ecamera2.jpg","","","","","Memory","false","null","","","",""
"","null","html-keyboard-response","317","2.0.0","446040","pcfdh9f6su2","p73","null","<div style=""font-size:60px; color: black;"">+</div>","","","","","","","","","","",""
"","null","image-keyboard-response","318","2.0.0","448045","pcfdh9f6su2","p73","null","stimuli\EXEMPLAR\USED\Epiano1.jpg","","","","","Memory","false","null","","","",""
"","null","html-keyboard-response","319","2.0.0","448548","pcfdh9f6su2","p73","null","<div style=""font-size:60px; color: black;"">+</div>","","","","","","","","","","",""
"","null","image-keyboard-response","320","2.0.0","450552","pcfdh9f6su2","p73","null","stimuli\EXEMPLAR\USED\Ebinoculars2.jpg","","","","","Memory","true","null","","","",""
"","null","html-keyboard-response","321","2.0.0","451055","pcfdh9f6su2","p73","null","<div style=""font-size:60px; color: black;"">+</div>","","","","","","","","","","",""
"","null","image-keyboard-response","322","2.0.0","453059","pcfdh9f6su2","p73","null","stimuli\EXEMPLAR\USED\Esuitcase2.jpg","","","","","Memory","false","null","","","",""
"","null","html-keyboard-response","323","2.0.0","453562","pcfdh9f6su2","p73","null","<div style=""font-size:60px; color: black;"">+</div>","","","","","","","","","","",""
"","null","image-keyboard-response","324","2.0.0","455566","pcfdh9f6su2","p73","null","stimuli\EXEMPLAR\USED\Ebicycle2.jpg","","","","","Memory","false","null","","","",""
"","null","html-keyboard-response","325","2.0.0","456069","pcfdh9f6su2","p73","null","<div style=""font-size:60px; color: black;"">+</div>","","","","","","","","","","",""
"","null","image-keyboard-response","326","2.0.0","458072","pcfdh9f6su2","p73","null","stimuli\EXEMPLAR\USED\Efishbowl2.jpg","","","","","Memory","false","null","","","",""
"","null","html-keyboard-response","327","2.0.0","458575","pcfdh9f6su2","p73","null","<div style=""font-size:60px; color: black;"">+</div>","","","","","","","","","","",""
"","null","image-keyboard-response","328","2.0.0","460593","pcfdh9f6su2","p73","null","stimuli\STATE\USED\Sdonut2.jpg","","","","","Memory","false","null","","","",""
"","null","html-keyboard-response","329","2.0.0","461095","pcfdh9f6su2","p73","null","<div style=""font-size:60px; color: black;"">+</div>","","","","","","","","","","",""
"","null","image-keyboard-response","330","2.0.0","463099","pcfdh9f6su2","p73","null","stimuli\EXEMPLAR\USED\Esuitcase2.jpg","","","","","Memory","true","null","","","",""
"","null","html-keyboard-response","331","2.0.0","463603","pcfdh9f6su2","p73","null","<div style=""font-size:60px; color: black;"">+</div>","","","","","","","","","","",""
"","null","image-keyboard-response","332","2.0.0","465606","pcfdh9f6su2","p73","null","stimuli\STATE\USED\Sbrie2.JPG","","","","","Memory","false","null","","","",""
"","null","html-keyboard-response","333","2.0.0","466108","pcfdh9f6su2","p73","null","<div style=""font-size:60px; color: black;"">+</div>","","","","","","","","","","",""
"","null","image-keyboard-response","334","2.0.0","468112","pcfdh9f6su2","p73","null","stimuli\STATE\USED\Spumpkinpie1.jpg","","","","","Memory","false","null","","","",""
"","null","html-keyboard-response","335","2.0.0","468614","pcfdh9f6su2","p73","null","<div style=""font-size:60px; color: black;"">+</div>","","","","","","","","","","",""
"","null","image-keyboard-response","336","2.0.0","470617","pcfdh9f6su2","p73","null","stimuli\STATE\USED\Scoffeemaker1.JPG","","","","","Memory","false","null","","","",""
"","null","html-keyboard-response","337","2.0.0","471120","pcfdh9f6su2","p73","null","<div style=""font-size:60px; color: black;"">+</div>","","","","","","","","","","",""
"","null","image-keyboard-response","338","2.0.0","473124","pcfdh9f6su2","p73","null","stimuli\EXEMPLAR\USED\Emicroscope2.jpg","","","","","Memory","false","null","","","",""
"","null","html-keyboard-response","339","2.0.0","473627","pcfdh9f6su2","p73","null","<div style=""font-size:60px; color: black;"">+</div>","","","","","","","","","","",""
"","null","image-keyboard-response","340","2.0.0","475631","pcfdh9f6su2","p73","null","stimuli\EXEMPLAR\USED\Emuffler2.jpg","","","","","Memory","false","null","","","",""
"","null","html-keyboard-response","341","2.0.0","476133","pcfdh9f6su2","p73","null","<div style=""font-size:60px; color: black;"">+</div>","","","","","","","","","","",""
"","null","image-keyboard-response","342","2.0.0","478138","pcfdh9f6su2","p73","null","stimuli\EXEMPLAR\USED\Epeppers1.jpg","","","","","Memory","false","null","","","",""
"","null","html-keyboard-response","343","2.0.0","478646","pcfdh9f6su2","p73","null","<div style=""font-size:60px; color: black;"">+</div>","","","","","","","","","","",""
"","null","image-keyboard-response","344","2.0.0","480650","pcfdh9f6su2","p73","null","stimuli\EXEMPLAR\USED\Eframe2.jpg","","","","","Memory","false","null","","","",""
"","null","html-keyboard-response","345","2.0.0","481151","pcfdh9f6su2","p73","null","<div style=""font-size:60px; color: black;"">+</div>","","","","","","","","","","",""
"","null","image-keyboard-response","346","2.0.0","483155","pcfdh9f6su2","p73","null","stimuli\STATE\USED\Spatiotable1.jpg","","","","","Memory","false","null","","","",""
"","null","html-keyboard-response","347","2.0.0","483658","pcfdh9f6su2","p73","null","<div style=""font-size:60px; color: black;"">+</div>","","","","","","","","","","",""
"","6277","html-keyboard-response","348","2.0.0","489937","pcfdh9f6su2","p73"," ","
          <p>In the next part of this experiment, you will see 2 images. Please select the image that you recall from the image stream.</p>
          <p>You will also rate your confidence for each image you recall.</p>
          <p>Press any key to start.</p>
        ","","","","","","","","","","",""
"","3230","html-button-response","349","2.0.0","493169","pcfdh9f6su2","p73","0","Which of these items did you see before?","","","","","Test","","true","[""stimuli\\STATE\\USED\\Saccordionsmall1.JPG"",""stimuli\\STATE\\USED\\Saccordionsmall2.JPG""]","stimuli\STATE\USED\Saccordionsmall1.JPG","stimuli\STATE\USED\Saccordionsmall1.JPG",""
"","3344","image-slider-response","350","2.0.0","496518","pcfdh9f6su2","p73","4","stimuli\STATE\USED\Saccordionsmall1.JPG","","","","","","","","","","","3"
"","4767","html-button-response","351","2.0.0","501287","pcfdh9f6su2","p73","0","Which of these items did you see before?","","","","","Test","","true","[""stimuli\\EXEMPLAR\\USED\\Eteapot1.JPG"",""stimuli\\EXEMPLAR\\USED\\Eteapot2.JPG""]","stimuli\EXEMPLAR\USED\Eteapot1.JPG","stimuli\EXEMPLAR\USED\Eteapot1.JPG",""
"","3074","image-slider-response","352","2.0.0","504362","pcfdh9f6su2","p73","2","stimuli\EXEMPLAR\USED\Eteapot1.JPG","","","","","","","","","","","3"
"","4672","html-button-response","353","2.0.0","509036","pcfdh9f6su2","p73","0","Which of these items did you see before?","","","","","Test","","true","[""stimuli\\EXEMPLAR\\USED\\Epiano1.jpg"",""stimuli\\EXEMPLAR\\USED\\Epiano2.jpg""]","stimuli\EXEMPLAR\USED\Epiano1.jpg","stimuli\EXEMPLAR\USED\Epiano1.jpg",""
"","2883","image-slider-response","354","2.0.0","511921","pcfdh9f6su2","p73","2","stimuli\EXEMPLAR\USED\Epiano1.jpg","","","","","","","","","","","3"
"","1442","html-button-response","355","2.0.0","513364","pcfdh9f6su2","p73","0","Which of these items did you see before?","","","","","Test","","true","[""stimuli\\STATE\\USED\\Spiggybank1.jpg"",""stimuli\\STATE\\USED\\Spiggybank2.jpg""]","stimuli\STATE\USED\Spiggybank1.jpg","stimuli\STATE\USED\Spiggybank1.jpg",""
"","2355","image-slider-response","356","2.0.0","515720","pcfdh9f6su2","p73","5","stimuli\STATE\USED\Spiggybank1.jpg","","","","","","","","","","","3"
"","3197","html-button-response","357","2.0.0","518919","pcfdh9f6su2","p73","0","Which of these items did you see before?","","","","","Test","","true","[""stimuli\\STATE\\USED\\Sbrushes2.jpg"",""stimuli\\STATE\\USED\\Sbrushes1.jpg""]","stimuli\STATE\USED\Sbrushes2.jpg","stimuli\STATE\USED\Sbrushes2.jpg",""
"","2876","image-slider-response","358","2.0.0","521796","pcfdh9f6su2","p73","2","stimuli\STATE\USED\Sbrushes2.jpg","","","","","","","","","","","3"
"","3694","html-button-response","359","2.0.0","525490","pcfdh9f6su2","p73","0","Which of these items did you see before?","","","","","Test","","true","[""stimuli\\EXEMPLAR\\USED\\Etongs2.jpg"",""stimuli\\EXEMPLAR\\USED\\Etongs1.jpg""]","stimuli\EXEMPLAR\USED\Etongs2.jpg","stimuli\EXEMPLAR\USED\Etongs2.jpg",""
"","2339","image-slider-response","360","2.0.0","527831","pcfdh9f6su2","p73","4","stimuli\EXEMPLAR\USED\Etongs2.jpg","","","","","","","","","","","3"
"","8182","html-button-response","361","2.0.0","536014","pcfdh9f6su2","p73","1","Which of these items did you see before?","","","","","Test","","true","[""stimuli\\STATE\\USED\\Saccordion1.jpg"",""stimuli\\STATE\\USED\\Saccordion2.jpg""]","stimuli\STATE\USED\Saccordion2.jpg","stimuli\STATE\USED\Saccordion2.jpg",""
"","2531","image-slider-response","362","2.0.0","538546","pcfdh9f6su2","p73","2","stimuli\STATE\USED\Saccordion2.jpg","","","","","","","","","","","3"
"","1844","html-button-response","363","2.0.0","540391","pcfdh9f6su2","p73","0","Which of these items did you see before?","","","","","Test","","false","[""stimuli\\EXEMPLAR\\USED\\Elog1.jpg"",""stimuli\\EXEMPLAR\\USED\\Elog2.jpg""]","stimuli\EXEMPLAR\USED\Elog2.jpg","stimuli\EXEMPLAR\USED\Elog1.jpg",""
"","4374","image-slider-response","364","2.0.0","544767","pcfdh9f6su2","p73","3","stimuli\EXEMPLAR\USED\Elog1.jpg","","","","","","","","","","","3"
"","2661","html-button-response","365","2.0.0","547429","pcfdh9f6su2","p73","0","Which of these items did you see before?","","","","","Test","","true","[""stimuli\\EXEMPLAR\\USED\\Etractor2.jpg"",""stimuli\\EXEMPLAR\\USED\\Etractor1.jpg""]","stimuli\EXEMPLAR\USED\Etractor2.jpg","stimuli\EXEMPLAR\USED\Etractor2.jpg",""
"","2883","image-slider-response","366","2.0.0","550313","pcfdh9f6su2","p73","2","stimuli\EXEMPLAR\USED\Etractor2.jpg","","","","","","","","","","","3"
"","2814","html-button-response","367","2.0.0","553128","pcfdh9f6su2","p73","1","Which of these items did you see before?","","","","","Test","","true","[""stimuli\\EXEMPLAR\\USED\\Eholepunch1.jpg"",""stimuli\\EXEMPLAR\\USED\\Eholepunch2.jpg""]","stimuli\EXEMPLAR\USED\Eholepunch2.jpg","stimuli\EXEMPLAR\USED\Eholepunch2.jpg",""
"","2178","image-slider-response","368","2.0.0","555307","pcfdh9f6su2","p73","3","stimuli\EXEMPLAR\USED\Eholepunch2.jpg","","","","","","","","","","","3"
"","1426","html-button-response","369","2.0.0","556734","pcfdh9f6su2","p73","0","Which of these items did you see before?","","","","","Test","","true","[""stimuli\\STATE\\USED\\Seggplant1.jpg"",""stimuli\\STATE\\USED\\Seggplant2.jpg""]","stimuli\STATE\USED\Seggplant1.jpg","stimuli\STATE\USED\Seggplant1.jpg",""
"","1738","image-slider-response","370","2.0.0","558473","pcfdh9f6su2","p73","4","stimuli\STATE\USED\Seggplant1.jpg","","","","","","","","","","","3"
"","3487","html-button-response","371","2.0.0","561962","pcfdh9f6su2","p73","1","Which of these items did you see before?","","","","","Test","","true","[""stimuli\\STATE\\USED\\Ssweater2.jpg"",""stimuli\\STATE\\USED\\Ssweater1.jpg""]","stimuli\STATE\USED\Ssweater1.jpg","stimuli\STATE\USED\Ssweater1.jpg",""
"","3049","image-slider-response","372","2.0.0","565013","pcfdh9f6su2","p73","2","stimuli\STATE\USED\Ssweater1.jpg","","","","","","","","","","","3"
"","2516","html-button-response","373","2.0.0","567531","pcfdh9f6su2","p73","0","Which of these items did you see before?","","","","","Test","","false","[""stimuli\\STATE\\USED\\Speppers2.jpg"",""stimuli\\STATE\\USED\\Speppers1.jpg""]","stimuli\STATE\USED\Speppers1.jpg","stimuli\STATE\USED\Speppers2.jpg",""
"","2354","image-slider-response","374","2.0.0","569887","pcfdh9f6su2","p73","3","stimuli\STATE\USED\Speppers2.jpg","","","","","","","","","","","3"
"","1633","html-button-response","375","2.0.0","571521","pcfdh9f6su2","p73","0","Which of these items did you see before?","","","","","Test","","false","[""stimuli\\EXEMPLAR\\USED\\Ehanger1.jpg"",""stimuli\\EXEMPLAR\\USED\\Ehanger2.jpg""]","stimuli\EXEMPLAR\USED\Ehanger2.jpg","stimuli\EXEMPLAR\USED\Ehanger1.jpg",""
"","1779","image-slider-response","376","2.0.0","573301","pcfdh9f6su2","p73","2","stimuli\EXEMPLAR\USED\Ehanger1.jpg","","","","","","","","","","","3"
"","2716","html-button-response","377","2.0.0","576018","pcfdh9f6su2","p73","0","Which of these items did you see before?","","","","","Test","","true","[""stimuli\\EXEMPLAR\\USED\\Ehelmet2.jpg"",""stimuli\\EXEMPLAR\\USED\\Ehelmet1.jpg""]","stimuli\EXEMPLAR\USED\Ehelmet2.jpg","stimuli\EXEMPLAR\USED\Ehelmet2.jpg",""
"","1858","image-slider-response","378","2.0.0","577877","pcfdh9f6su2","p73","3","stimuli\EXEMPLAR\USED\Ehelmet2.jpg","","","","","","","","","","","3"
"","4817","html-button-response","379","2.0.0","582694","pcfdh9f6su2","p73","1","Which of these items did you see before?","","","","","Test","","false","[""stimuli\\EXEMPLAR\\USED\\Esantahat2.jpg"",""stimuli\\EXEMPLAR\\USED\\Esantahat1.jpg""]","stimuli\EXEMPLAR\USED\Esantahat2.jpg","stimuli\EXEMPLAR\USED\Esantahat1.jpg",""
"","1906","image-slider-response","380","2.0.0","584602","pcfdh9f6su2","p73","2","stimuli\EXEMPLAR\USED\Esantahat1.jpg","","","","","","","","","","","3"
"","1611","html-button-response","381","2.0.0","586214","pcfdh9f6su2","p73","0","Which of these items did you see before?","","","","","Test","","false","[""stimuli\\STATE\\USED\\Swaffleiron2.jpg"",""stimuli\\STATE\\USED\\Swaffleiron1.jpg""]","stimuli\STATE\USED\Swaffleiron1.jpg","stimuli\STATE\USED\Swaffleiron2.jpg",""
"","2187","image-slider-response","382","2.0.0","588402","pcfdh9f6su2","p73","3","stimuli\STATE\USED\Swaffleiron2.jpg","","","","","","","","","","","3"
"","1593","html-button-response","383","2.0.0","589996","pcfdh9f6su2","p73","0","Which of these items did you see before?","","","","","Test","","true","[""stimuli\\STATE\\USED\\Sclipboard1.jpg"",""stimuli\\STATE\\USED\\Sclipboard2.jpg""]","stimuli\STATE\USED\Sclipboard1.jpg","stimuli\STATE\USED\Sclipboard1.jpg",""
"","2172","image-slider-response","384","2.0.0","592168","pcfdh9f6su2","p73","4","stimuli\STATE\USED\Sclipboard1.jpg","","","","","","","","","","","3"
"","2675","html-button-response","385","2.0.0","594845","pcfdh9f6su2","p73","1","Which of these items did you see before?","","","","","Test","","true","[""stimuli\\STATE\\USED\\Scooker2.jpg"",""stimuli\\STATE\\USED\\Scooker1.jpg""]","stimuli\STATE\USED\Scooker1.jpg","stimuli\STATE\USED\Scooker1.jpg",""
"","1770","image-slider-response","386","2.0.0","596617","pcfdh9f6su2","p73","2","stimuli\STATE\USED\Scooker1.jpg","","","","","","","","","","","3"
"","3205","html-button-response","387","2.0.0","599823","pcfdh9f6su2","p73","1","Which of these items did you see before?","","","","","Test","","false","[""stimuli\\EXEMPLAR\\USED\\Etoyhand1.jpg"",""stimuli\\EXEMPLAR\\USED\\Etoyhand2.jpg""]","stimuli\EXEMPLAR\USED\Etoyhand1.jpg","stimuli\EXEMPLAR\USED\Etoyhand2.jpg",""
"","1858","image-slider-response","388","2.0.0","601683","pcfdh9f6su2","p73","2","stimuli\EXEMPLAR\USED\Etoyhand2.jpg","","","","","","","","","","","3"
"","4215","html-button-response","389","2.0.0","605899","pcfdh9f6su2","p73","1","Which of these items did you see before?","","","","","Test","","true","[""stimuli\\EXEMPLAR\\USED\\Escroll1.jpg"",""stimuli\\EXEMPLAR\\USED\\Escroll2.jpg""]","stimuli\EXEMPLAR\USED\Escroll2.jpg","stimuli\EXEMPLAR\USED\Escroll2.jpg",""
"","2394","image-slider-response","390","2.0.0","608295","pcfdh9f6su2","p73","4","stimuli\EXEMPLAR\USED\Escroll2.jpg","","","","","","","","","","","3"
"","2955","html-button-response","391","2.0.0","611252","pcfdh9f6su2","p73","1","Which of these items did you see before?","","","","","Test","","true","[""stimuli\\EXEMPLAR\\USED\\Emitt1.jpg"",""stimuli\\EXEMPLAR\\USED\\Emitt2.jpg""]","stimuli\EXEMPLAR\USED\Emitt2.jpg","stimuli\EXEMPLAR\USED\Emitt2.jpg",""
"","1561","image-slider-response","392","2.0.0","612815","pcfdh9f6su2","p73","5","stimuli\EXEMPLAR\USED\Emitt2.jpg","","","","","","","","","","","3"
"","3565","html-button-response","393","2.0.0","616381","pcfdh9f6su2","p73","0","Which of these items did you see before?","","","","","Test","","true","[""stimuli\\STATE\\USED\\Sdishes2.JPG"",""stimuli\\STATE\\USED\\Sdishes1.JPG""]","stimuli\STATE\USED\Sdishes2.JPG","stimuli\STATE\USED\Sdishes2.JPG",""
"","3509","image-slider-response","394","2.0.0","619891","pcfdh9f6su2","p73","4","stimuli\STATE\USED\Sdishes2.JPG","","","","","","","","","","","3"
"","6723","html-button-response","395","2.0.0","626616","pcfdh9f6su2","p73","1","Which of these items did you see before?","","","","","Test","","true","[""stimuli\\STATE\\USED\\Sdrum1.jpg"",""stimuli\\STATE\\USED\\Sdrum2.jpg""]","stimuli\STATE\USED\Sdrum2.jpg","stimuli\STATE\USED\Sdrum2.jpg",""
"","3829","image-slider-response","396","2.0.0","630446","pcfdh9f6su2","p73","4","stimuli\STATE\USED\Sdrum2.jpg","","","","","","","","","","","3"
"","1594","html-button-response","397","2.0.0","632041","pcfdh9f6su2","p73","0","Which of these items did you see before?","","","","","Test","","true","[""stimuli\\STATE\\USED\\Sbrie2.JPG"",""stimuli\\STATE\\USED\\Sbrie1.JPG""]","stimuli\STATE\USED\Sbrie2.JPG","stimuli\STATE\USED\Sbrie2.JPG",""
"","2429","image-slider-response","398","2.0.0","634471","pcfdh9f6su2","p73","5","stimuli\STATE\USED\Sbrie2.JPG","","","","","","","","","","","3"
"","5182","html-button-response","399","2.0.0","639654","pcfdh9f6su2","p73","0","Which of these items did you see before?","","","","","Test","","true","[""stimuli\\STATE\\USED\\Spestle1.jpg"",""stimuli\\STATE\\USED\\Spestle2.jpg""]","stimuli\STATE\USED\Spestle1.jpg","stimuli\STATE\USED\Spestle1.jpg",""
"","2708","image-slider-response","400","2.0.0","642363","pcfdh9f6su2","p73","4","stimuli\STATE\USED\Spestle1.jpg","","","","","","","","","","","3"
"","5531","html-button-response","401","2.0.0","647895","pcfdh9f6su2","p73","0","Which of these items did you see before?","","","","","Test","","false","[""stimuli\\STATE\\USED\\Sphone1.JPG"",""stimuli\\STATE\\USED\\Sphone2.JPG""]","stimuli\STATE\USED\Sphone2.JPG","stimuli\STATE\USED\Sphone1.JPG",""
"","1872","image-slider-response","402","2.0.0","649771","pcfdh9f6su2","p73","4","stimuli\STATE\USED\Sphone1.JPG","","","","","","","","","","","3"
"","4084","html-button-response","403","2.0.0","653857","pcfdh9f6su2","p73","0","Which of these items did you see before?","","","","","Test","","true","[""stimuli\\STATE\\USED\\Spotpan1.JPG"",""stimuli\\STATE\\USED\\Spotpan2.JPG""]","stimuli\STATE\USED\Spotpan1.JPG","stimuli\STATE\USED\Spotpan1.JPG",""
"","2340","image-slider-response","404","2.0.0","656199","pcfdh9f6su2","p73","3","stimuli\STATE\USED\Spotpan1.JPG","","","","","","","","","","","3"
"","1705","html-button-response","405","2.0.0","657905","pcfdh9f6su2","p73","1","Which of these items did you see before?","","","","","Test","","true","[""stimuli\\EXEMPLAR\\USED\\Etoykeys1.jpg"",""stimuli\\EXEMPLAR\\USED\\Etoykeys2.JPG""]","stimuli\EXEMPLAR\USED\Etoykeys2.JPG","stimuli\EXEMPLAR\USED\Etoykeys2.JPG",""
"","1850","image-slider-response","406","2.0.0","659756","pcfdh9f6su2","p73","4","stimuli\EXEMPLAR\USED\Etoykeys2.JPG","","","","","","","","","","","3"
"","4351","html-button-response","407","2.0.0","664108","pcfdh9f6su2","p73","1","Which of these items did you see before?","","","","","Test","","true","[""stimuli\\STATE\\USED\\Sseats1.jpg"",""stimuli\\STATE\\USED\\Sseats2.jpg""]","stimuli\STATE\USED\Sseats2.jpg","stimuli\STATE\USED\Sseats2.jpg",""
"","3404","image-slider-response","408","2.0.0","667514","pcfdh9f6su2","p73","5","stimuli\STATE\USED\Sseats2.jpg","","","","","","","","","","","3"
"","2492","html-button-response","409","2.0.0","670008","pcfdh9f6su2","p73","0","Which of these items did you see before?","","","","","Test","","false","[""stimuli\\STATE\\USED\\Spumpkinpie2.jpg"",""stimuli\\STATE\\USED\\Spumpkinpie1.jpg""]","stimuli\STATE\USED\Spumpkinpie1.jpg","stimuli\STATE\USED\Spumpkinpie2.jpg",""
"","2361","image-slider-response","410","2.0.0","672371","pcfdh9f6su2","p73","4","stimuli\STATE\USED\Spumpkinpie2.jpg","","","","","","","","","","","3"
"","1809","html-button-response","411","2.0.0","674183","pcfdh9f6su2","p73","0","Which of these items did you see before?","","","","","Test","","false","[""stimuli\\STATE\\USED\\Snapkins2.jpg"",""stimuli\\STATE\\USED\\Snapkins1.jpg""]","stimuli\STATE\USED\Snapkins1.jpg","stimuli\STATE\USED\Snapkins2.jpg",""
"","1673","image-slider-response","412","2.0.0","675857","pcfdh9f6su2","p73","4","stimuli\STATE\USED\Snapkins2.jpg","","","","","","","","","","","3"
"","3984","html-button-response","413","2.0.0","679842","pcfdh9f6su2","p73","1","Which of these items did you see before?","","","","","Test","","true","[""stimuli\\STATE\\USED\\Sapplesredbasket2.JPG"",""stimuli\\STATE\\USED\\Sapplesredbasket1.JPG""]","stimuli\STATE\USED\Sapplesredbasket1.JPG","stimuli\STATE\USED\Sapplesredbasket1.JPG",""
"","1848","image-slider-response","414","2.0.0","681692","pcfdh9f6su2","p73","2","stimuli\STATE\USED\Sapplesredbasket1.JPG","","","","","","","","","","","3"
"","1340","html-button-response","415","2.0.0","683032","pcfdh9f6su2","p73","0","Which of these items did you see before?","","","","","Test","","false","[""stimuli\\EXEMPLAR\\USED\\Eremover2.jpg"",""stimuli\\EXEMPLAR\\USED\\Eremover1.jpg""]","stimuli\EXEMPLAR\USED\Eremover1.jpg","stimuli\EXEMPLAR\USED\Eremover2.jpg",""
"","2025","image-slider-response","416","2.0.0","685059","pcfdh9f6su2","p73","4","stimuli\EXEMPLAR\USED\Eremover2.jpg","","","","","","","","","","","3"
"","2051","html-button-response","417","2.0.0","687111","pcfdh9f6su2","p73","0","Which of these items did you see before?","","","","","Test","","false","[""stimuli\\EXEMPLAR\\USED\\Estarfish1.jpg"",""stimuli\\EXEMPLAR\\USED\\Estarfish2.jpg""]","stimuli\EXEMPLAR\USED\Estarfish2.jpg","stimuli\EXEMPLAR\USED\Estarfish1.jpg",""
"","1593","image-slider-response","418","2.0.0","688705","pcfdh9f6su2","p73","4","stimuli\EXEMPLAR\USED\Estarfish1.jpg","","","","","","","","","","","3"
"","1306","html-button-response","419","2.0.0","690012","pcfdh9f6su2","p73","1","Which of these items did you see before?","","","","","Test","","true","[""stimuli\\EXEMPLAR\\USED\\Ekayak2.jpg"",""stimuli\\EXEMPLAR\\USED\\Ekayak1.jpg""]","stimuli\EXEMPLAR\USED\Ekayak1.jpg","stimuli\EXEMPLAR\USED\Ekayak1.jpg",""
"","2371","image-slider-response","420","2.0.0","692385","pcfdh9f6su2","p73","5","stimuli\EXEMPLAR\USED\Ekayak1.jpg","","","","","","","","","","","3"
"","1699","html-button-response","421","2.0.0","694085","pcfdh9f6su2","p73","0","Which of these items did you see before?","","","","","Test","","true","[""stimuli\\EXEMPLAR\\USED\\Eframe2.jpg"",""stimuli\\EXEMPLAR\\USED\\Eframe1.jpg""]","stimuli\EXEMPLAR\USED\Eframe2.jpg","stimuli\EXEMPLAR\USED\Eframe2.jpg",""
"","2250","image-slider-response","422","2.0.0","696336","pcfdh9f6su2","p73","5","stimuli\EXEMPLAR\USED\Eframe2.jpg","","","","","","","","","","","3"
"","1866","html-button-response","423","2.0.0","698203","pcfdh9f6su2","p73","0","Which of these items did you see before?","","","","","Test","","true","[""stimuli\\EXEMPLAR\\USED\\Ewineglass1.jpg"",""stimuli\\EXEMPLAR\\USED\\Ewineglass2.jpg""]","stimuli\EXEMPLAR\USED\Ewineglass1.jpg","stimuli\EXEMPLAR\USED\Ewineglass1.jpg",""
"","1892","image-slider-response","424","2.0.0","700096","pcfdh9f6su2","p73","3","stimuli\EXEMPLAR\USED\Ewineglass1.jpg","","","","","","","","","","","3"
"","1288","html-button-response","425","2.0.0","701385","pcfdh9f6su2","p73","0","Which of these items did you see before?","","","","","Test","","true","[""stimuli\\STATE\\USED\\Shandmirror1.jpg"",""stimuli\\STATE\\USED\\Shandmirror2.jpg""]","stimuli\STATE\USED\Shandmirror1.jpg","stimuli\STATE\USED\Shandmirror1.jpg",""
"","2508","image-slider-response","426","2.0.0","703894","pcfdh9f6su2","p73","5","stimuli\STATE\USED\Shandmirror1.jpg","","","","","","","","","","","3"
"","1972","html-button-response","427","2.0.0","705867","pcfdh9f6su2","p73","0","Which of these items did you see before?","","","","","Test","","true","[""stimuli\\EXEMPLAR\\USED\\Ehoe1.jpg"",""stimuli\\EXEMPLAR\\USED\\Ehoe2.jpg""]","stimuli\EXEMPLAR\USED\Ehoe1.jpg","stimuli\EXEMPLAR\USED\Ehoe1.jpg",""
"","3651","image-slider-response","428","2.0.0","709520","pcfdh9f6su2","p73","4","stimuli\EXEMPLAR\USED\Ehoe1.jpg","","","","","","","","","","","3"
"","2717","html-button-response","429","2.0.0","712238","pcfdh9f6su2","p73","0","Which of these items did you see before?","","","","","Test","","true","[""stimuli\\EXEMPLAR\\USED\\Ecamera2.jpg"",""stimuli\\EXEMPLAR\\USED\\Ecamera1.jpg""]","stimuli\EXEMPLAR\USED\Ecamera2.jpg","stimuli\EXEMPLAR\USED\Ecamera2.jpg",""
"","2374","image-slider-response","430","2.0.0","714617","pcfdh9f6su2","p73","4","stimuli\EXEMPLAR\USED\Ecamera2.jpg","","","","","","","","","","","3"
"","4888","html-button-response","431","2.0.0","719506","pcfdh9f6su2","p73","1","Which of these items did you see before?","","","","","Test","","true","[""stimuli\\EXEMPLAR\\USED\\Echopsticks2.jpg"",""stimuli\\EXEMPLAR\\USED\\Echopsticks1.jpg""]","stimuli\EXEMPLAR\USED\Echopsticks1.jpg","stimuli\EXEMPLAR\USED\Echopsticks1.jpg",""
"","2434","image-slider-response","432","2.0.0","721943","pcfdh9f6su2","p73","5","stimuli\EXEMPLAR\USED\Echopsticks1.jpg","","","","","","","","","","","3"
"","3356","html-button-response","433","2.0.0","725300","pcfdh9f6su2","p73","1","Which of these items did you see before?","","","","","Test","","false","[""stimuli\\EXEMPLAR\\USED\\Eheadphones1.jpg"",""stimuli\\EXEMPLAR\\USED\\Eheadphones2.jpg""]","stimuli\EXEMPLAR\USED\Eheadphones1.jpg","stimuli\EXEMPLAR\USED\Eheadphones2.jpg",""
"","3348","image-slider-response","434","2.0.0","728650","pcfdh9f6su2","p73","4","stimuli\EXEMPLAR\USED\Eheadphones2.jpg","","","","","","","","","","","3"
"","3590","html-button-response","435","2.0.0","732241","pcfdh9f6su2","p73","0","Which of these items did you see before?","","","","","Test","","false","[""stimuli\\EXEMPLAR\\USED\\Ebell1.jpg"",""stimuli\\EXEMPLAR\\USED\\Ebell2.jpg""]","stimuli\EXEMPLAR\USED\Ebell2.jpg","stimuli\EXEMPLAR\USED\Ebell1.jpg",""
"","6017","image-slider-response","436","2.0.0","738260","pcfdh9f6su2","p73","2","stimuli\EXEMPLAR\USED\Ebell1.jpg","","","","","","","","","","","3"
"","1683","html-button-response","437","2.0.0","739945","pcfdh9f6su2","p73","0","Which of these items did you see before?","","","","","Test","","true","[""stimuli\\EXEMPLAR\\USED\\Enozzle1.jpg"",""stimuli\\EXEMPLAR\\USED\\Enozzle2.jpg""]","stimuli\EXEMPLAR\USED\Enozzle1.jpg","stimuli\EXEMPLAR\USED\Enozzle1.jpg",""
"","2297","image-slider-response","438","2.0.0","742243","pcfdh9f6su2","p73","3","stimuli\EXEMPLAR\USED\Enozzle1.jpg","","","","","","","","","","","3"
"","3278","html-button-response","439","2.0.0","745523","pcfdh9f6su2","p73","0","Which of these items did you see before?","","","","","Test","","false","[""stimuli\\STATE\\USED\\Sphoneold1.jpg"",""stimuli\\STATE\\USED\\Sphoneold2.jpg""]","stimuli\STATE\USED\Sphoneold2.jpg","stimuli\STATE\USED\Sphoneold1.jpg",""
"","1800","image-slider-response","440","2.0.0","747324","pcfdh9f6su2","p73","4","stimuli\STATE\USED\Sphoneold1.jpg","","","","","","","","","","","3"
"","1788","html-button-response","441","2.0.0","749113","pcfdh9f6su2","p73","0","Which of these items did you see before?","","","","","Test","","false","[""stimuli\\STATE\\USED\\Smetronome2.JPG"",""stimuli\\STATE\\USED\\Smetronome1.jpg""]","stimuli\STATE\USED\Smetronome1.jpg","stimuli\STATE\USED\Smetronome2.JPG",""
"","1962","image-slider-response","442","2.0.0","751076","pcfdh9f6su2","p73","3","stimuli\STATE\USED\Smetronome2.JPG","","","","","","","","","","","3"
"","4270","html-button-response","443","2.0.0","755347","pcfdh9f6su2","p73","1","Which of these items did you see before?","","","","","Test","","true","[""stimuli\\STATE\\USED\\Sscales1.jpg"",""stimuli\\STATE\\USED\\Sscales2.jpg""]","stimuli\STATE\USED\Sscales2.jpg","stimuli\STATE\USED\Sscales2.jpg",""
"","1466","image-slider-response","444","2.0.0","756814","pcfdh9f6su2","p73","3","stimuli\STATE\USED\Sscales2.jpg","","","","","","","","","","","3"
"","2628","html-button-response","445","2.0.0","759443","pcfdh9f6su2","p73","0","Which of these items did you see before?","","","","","Test","","true","[""stimuli\\EXEMPLAR\\USED\\Efishbowl2.jpg"",""stimuli\\EXEMPLAR\\USED\\Efishbowl1.jpg""]","stimuli\EXEMPLAR\USED\Efishbowl2.jpg","stimuli\EXEMPLAR\USED\Efishbowl2.jpg",""
"","1649","image-slider-response","446","2.0.0","761093","pcfdh9f6su2","p73","4","stimuli\EXEMPLAR\USED\Efishbowl2.jpg","","","","","","","","","","","3"
"","3149","html-button-response","447","2.0.0","764244","pcfdh9f6su2","p73","1","Which of these items did you see before?","","","","","Test","","true","[""stimuli\\EXEMPLAR\\USED\\Eremote1.jpg"",""stimuli\\EXEMPLAR\\USED\\Eremote2.jpg""]","stimuli\EXEMPLAR\USED\Eremote2.jpg","stimuli\EXEMPLAR\USED\Eremote2.jpg",""
"","5961","image-slider-response","448","2.0.0","770206","pcfdh9f6su2","p73","2","stimuli\EXEMPLAR\USED\Eremote2.jpg","","","","","","","","","","","3"
"","142270","survey-text","449","2.0.0","912502","pcfdh9f6su2","p73","{""experiment_purpose"":""Recall ability based on the parts of the sequence where most people stop paying attention."",""Q1"":""Thought that I should focus on the red, black, and gold items for some reason. Also tried to see ways the images resembled other objects."",""technical_issues"":""No issues""}","","","","","","","","","","","",""
