"success","rt","trial_type","trial_index","plugin_version","time_elapsed","random_id","participant","response","stimulus","timeout","failed_images","failed_audio","failed_video","trial_phase","repeated","correct","choice_images","correct_image","choice","slider_start"
"true","1360","fullscreen","0","2.0.0","2368","pe7o54mbpf0","hedgehog","","","","","","","","","","","","",""
"","3035","survey-text","1","2.0.0","5409","pe7o54mbpf0","hedgehog","{""participant_id"":""hedgehog""}","","","","","","","","","","","",""
"","1589","html-keyboard-response","2","2.0.0","6999","pe7o54mbpf0","hedgehog"," ","<p>Welcome to the Massive Memory Experiment. Press any key to move on. </p>","","","","","","","","","","",""
"","80119","html-keyboard-response","3","2.0.0","87119","pe7o54mbpf0","hedgehog"," ","
      <div style='width:900px;margin: auto;'><p>In the first section you will see a stream of images, with fixation crosses in between each image.</p>
      <p>Each image will remain on screen for 2 seconds. Your job is to detect images that you have seen before within the experiment. Whenever you see an image that you have seen previously <b>at any point in the stream of images</b>, press the spacebar.</p>
      <p>We will let you know if you have correctly or falsely clicked the spacebar on an image by changing the color of the fixation cross.</p>
      <p>If you press the spacebar correctly (the image really did appear earlier), the fixation cross will turn green. If you pressed the spacebar incorrectly, the fixation cross will turn red.</p>
      <p>Please watch carefully to detect the images that show up again!</p>
      <p>Press any key to start.</p></div>
    ","","","","","","","","","","",""
"true","","preload","4","2.0.0","89111","pe7o54mbpf0","hedgehog","","","false","[]","[]","[]","","","","","","",""
"","null","image-keyboard-response","5","2.0.0","91115","pe7o54mbpf0","hedgehog","null","stimuli\STATE\USED\Sboxwhite1.jpg","","","","","Memory","false","null","","","",""
"","null","html-keyboard-response","6","2.0.0","91624","pe7o54mbpf0","hedgehog","null","<div style=""font-size:60px; color: black;"">+</div>","","","","","","","","","","",""
"","null","image-keyboard-response","7","2.0.0","93644","pe7o54mbpf0","hedgehog","null","stimuli\STATE\USED\Srainbowslice2.jpg","","","","","Memory","false","null","","","",""
"","null","html-keyboard-response","8","2.0.0","94158","pe7o54mbpf0","hedgehog","null","<div style=""font-size:60px; color: black;"">+</div>","","","","","","","","","","",""
"","null","image-keyboard-response","9","2.0.0","96170","pe7o54mbpf0","hedgehog","null","stimuli\STATE\USED\Smedicaltape2.jpg","","","","","Memory","false","null","","","",""
"","null","html-keyboard-response","10","2.0.0","96682","pe7o54mbpf0","hedgehog","null","<div style=""font-size:60px; color: black;"">+</div>","","","","","","","","","","",""
"","null","image-keyboard-response","11","2.0.0","98686","pe7o54mbpf0","hedgehog","null","stimuli\EXEMPLAR\USED\Epliers2.jpg","","","","","Memory","false","null","","","",""
"","null","html-keyboard-response","12","2.0.0","99203","pe7o54mbpf0","hedgehog","null","<div style=""font-size:60px; color: black;"">+</div>","","","","","","","","","","",""
"","null","image-keyboard-response","13","2.0.0","101217","pe7o54mbpf0","hedgehog","null","stimuli\EXEMPLAR\USED\Etoykeys2.JPG","","","","","Memory","false","null","","","",""
"","null","html-keyboard-response","14","2.0.0","101728","pe7o54mbpf0","hedgehog","null","<div style=""font-size:60px; color: black;"">+</div>","","","","","","","","","","",""
"","null","image-keyboard-response","15","2.0.0","103742","pe7o54mbpf0","hedgehog","null","stimuli\STATE\USED\Sgrinder1.jpg","","","","","Memory","false","null","","","",""
"","null","html-keyboard-response","16","2.0.0","104243","pe7o54mbpf0","hedgehog","null","<div style=""font-size:60px; color: black;"">+</div>","","","","","","","","","","",""
"","null","image-keyboard-response","17","2.0.0","106249","pe7o54mbpf0","hedgehog","null","stimuli\EXEMPLAR\USED\Estapler2.jpg","","","","","Memory","false","null","","","",""
"","null","html-keyboard-response","18","2.0.0","106759","pe7o54mbpf0","hedgehog","null","<div style=""font-size:60px; color: black;"">+</div>","","","","","","","","","","",""
"","null","image-keyboard-response","19","2.0.0","108765","pe7o54mbpf0","hedgehog","null","stimuli\EXEMPLAR\USED\Epliers2.jpg","","","","","Memory","true","null","","","",""
"","null","html-keyboard-response","20","2.0.0","109279","pe7o54mbpf0","hedgehog","null","<div style=""font-size:60px; color: black;"">+</div>","","","","","","","","","","",""
"","null","image-keyboard-response","21","2.0.0","111282","pe7o54mbpf0","hedgehog","null","stimuli\STATE\USED\Srhino1.jpg","","","","","Memory","false","null","","","",""
"","null","html-keyboard-response","22","2.0.0","111794","pe7o54mbpf0","hedgehog","null","<div style=""font-size:60px; color: black;"">+</div>","","","","","","","","","","",""
"","null","image-keyboard-response","23","2.0.0","113798","pe7o54mbpf0","hedgehog","null","stimuli\EXEMPLAR\USED\Echopsticks1.jpg","","","","","Memory","false","null","","","",""
"","null","html-keyboard-response","24","2.0.0","114309","pe7o54mbpf0","hedgehog","null","<div style=""font-size:60px; color: black;"">+</div>","","","","","","","","","","",""
"","1713","image-keyboard-response","25","2.0.0","116322","pe7o54mbpf0","hedgehog"," ","stimuli\STATE\USED\Sredcabbage1.jpg","","","","","Memory","false","false","","","",""
"","null","html-keyboard-response","26","2.0.0","116833","pe7o54mbpf0","hedgehog","null","<div style=""font-size:60px; color: red;"">+</div>","","","","","","","","","","",""
"","null","image-keyboard-response","27","2.0.0","118843","pe7o54mbpf0","hedgehog","null","stimuli\EXEMPLAR\USED\Eteapot1.JPG","","","","","Memory","false","null","","","",""
"","null","html-keyboard-response","28","2.0.0","119358","pe7o54mbpf0","hedgehog","null","<div style=""font-size:60px; color: black;"">+</div>","","","","","","","","","","",""
"","null","image-keyboard-response","29","2.0.0","121366","pe7o54mbpf0","hedgehog","null","stimuli\EXEMPLAR\USED\Estarfish1.jpg","","","","","Memory","false","null","","","",""
"","null","html-keyboard-response","30","2.0.0","121880","pe7o54mbpf0","hedgehog","null","<div style=""font-size:60px; color: black;"">+</div>","","","","","","","","","","",""
"","null","image-keyboard-response","31","2.0.0","123885","pe7o54mbpf0","hedgehog","null","stimuli\EXEMPLAR\USED\Emicroscope1.jpg","","","","","Memory","false","null","","","",""
"","null","html-keyboard-response","32","2.0.0","124402","pe7o54mbpf0","hedgehog","null","<div style=""font-size:60px; color: black;"">+</div>","","","","","","","","","","",""
"","1556","image-keyboard-response","33","2.0.0","126418","pe7o54mbpf0","hedgehog"," ","stimuli\STATE\USED\Sredcabbage1.jpg","","","","","Memory","true","true","","","",""
"","null","html-keyboard-response","34","2.0.0","126930","pe7o54mbpf0","hedgehog","null","<div style=""font-size:60px; color: green;"">+</div>","","","","","","","","","","",""
"","null","image-keyboard-response","35","2.0.0","128942","pe7o54mbpf0","hedgehog","null","stimuli\STATE\USED\Schinesefoodbox1.jpg","","","","","Memory","false","null","","","",""
"","null","html-keyboard-response","36","2.0.0","129458","pe7o54mbpf0","hedgehog","null","<div style=""font-size:60px; color: black;"">+</div>","","","","","","","","","","",""
"","null","image-keyboard-response","37","2.0.0","131469","pe7o54mbpf0","hedgehog","null","stimuli\EXEMPLAR\USED\Ehoe1.jpg","","","","","Memory","false","null","","","",""
"","null","html-keyboard-response","38","2.0.0","131978","pe7o54mbpf0","hedgehog","null","<div style=""font-size:60px; color: black;"">+</div>","","","","","","","","","","",""
"","null","image-keyboard-response","39","2.0.0","133993","pe7o54mbpf0","hedgehog","null","stimuli\EXEMPLAR\USED\Espraybottle2.jpg","","","","","Memory","false","null","","","",""
"","null","html-keyboard-response","40","2.0.0","134497","pe7o54mbpf0","hedgehog","null","<div style=""font-size:60px; color: black;"">+</div>","","","","","","","","","","",""
"","null","image-keyboard-response","41","2.0.0","136505","pe7o54mbpf0","hedgehog","null","stimuli\EXEMPLAR\USED\Ehotairballoon1.jpg","","","","","Memory","false","null","","","",""
"","null","html-keyboard-response","42","2.0.0","137009","pe7o54mbpf0","hedgehog","null","<div style=""font-size:60px; color: black;"">+</div>","","","","","","","","","","",""
"","null","image-keyboard-response","43","2.0.0","139021","pe7o54mbpf0","hedgehog","null","stimuli\EXEMPLAR\USED\Ewheelchair2.jpg","","","","","Memory","false","null","","","",""
"","null","html-keyboard-response","44","2.0.0","139536","pe7o54mbpf0","hedgehog","null","<div style=""font-size:60px; color: black;"">+</div>","","","","","","","","","","",""
"","742","image-keyboard-response","45","2.0.0","141551","pe7o54mbpf0","hedgehog"," ","stimuli\EXEMPLAR\USED\Ehoe1.jpg","","","","","Memory","true","true","","","",""
"","null","html-keyboard-response","46","2.0.0","142067","pe7o54mbpf0","hedgehog","null","<div style=""font-size:60px; color: green;"">+</div>","","","","","","","","","","",""
"","null","image-keyboard-response","47","2.0.0","144075","pe7o54mbpf0","hedgehog","null","stimuli\EXEMPLAR\USED\Esuitcase2.jpg","","","","","Memory","false","null","","","",""
"","null","html-keyboard-response","48","2.0.0","144589","pe7o54mbpf0","hedgehog","null","<div style=""font-size:60px; color: black;"">+</div>","","","","","","","","","","",""
"","null","image-keyboard-response","49","2.0.0","146601","pe7o54mbpf0","hedgehog","null","stimuli\STATE\USED\Speppers1.jpg","","","","","Memory","false","null","","","",""
"","null","html-keyboard-response","50","2.0.0","147111","pe7o54mbpf0","hedgehog","null","<div style=""font-size:60px; color: black;"">+</div>","","","","","","","","","","",""
"","null","image-keyboard-response","51","2.0.0","149119","pe7o54mbpf0","hedgehog","null","stimuli\EXEMPLAR\USED\Efolder1.jpg","","","","","Memory","false","null","","","",""
"","null","html-keyboard-response","52","2.0.0","149628","pe7o54mbpf0","hedgehog","null","<div style=""font-size:60px; color: black;"">+</div>","","","","","","","","","","",""
"","null","image-keyboard-response","53","2.0.0","151642","pe7o54mbpf0","hedgehog","null","stimuli\STATE\USED\Sbox2.jpg","","","","","Memory","false","null","","","",""
"","null","html-keyboard-response","54","2.0.0","152155","pe7o54mbpf0","hedgehog","null","<div style=""font-size:60px; color: black;"">+</div>","","","","","","","","","","",""
"","null","image-keyboard-response","55","2.0.0","154158","pe7o54mbpf0","hedgehog","null","stimuli\STATE\USED\Sphoneold2.jpg","","","","","Memory","false","null","","","",""
"","null","html-keyboard-response","56","2.0.0","154659","pe7o54mbpf0","hedgehog","null","<div style=""font-size:60px; color: black;"">+</div>","","","","","","","","","","",""
"","null","image-keyboard-response","57","2.0.0","156676","pe7o54mbpf0","hedgehog","null","stimuli\EXEMPLAR\USED\Echeeses2.jpg","","","","","Memory","false","null","","","",""
"","null","html-keyboard-response","58","2.0.0","157189","pe7o54mbpf0","hedgehog","null","<div style=""font-size:60px; color: black;"">+</div>","","","","","","","","","","",""
"","null","image-keyboard-response","59","2.0.0","159200","pe7o54mbpf0","hedgehog","null","stimuli\STATE\USED\Sschoolbag2.JPG","","","","","Memory","false","null","","","",""
"","null","html-keyboard-response","60","2.0.0","159703","pe7o54mbpf0","hedgehog","null","<div style=""font-size:60px; color: black;"">+</div>","","","","","","","","","","",""
"","null","image-keyboard-response","61","2.0.0","161709","pe7o54mbpf0","hedgehog","null","stimuli\STATE\USED\Sskull2.jpg","","","","","Memory","false","null","","","",""
"","null","html-keyboard-response","62","2.0.0","162224","pe7o54mbpf0","hedgehog","null","<div style=""font-size:60px; color: black;"">+</div>","","","","","","","","","","",""
"","919","image-keyboard-response","63","2.0.0","164227","pe7o54mbpf0","hedgehog"," ","stimuli\STATE\USED\Sphoneold2.jpg","","","","","Memory","true","true","","","",""
"","null","html-keyboard-response","64","2.0.0","164740","pe7o54mbpf0","hedgehog","null","<div style=""font-size:60px; color: green;"">+</div>","","","","","","","","","","",""
"","null","image-keyboard-response","65","2.0.0","166743","pe7o54mbpf0","hedgehog","null","stimuli\STATE\USED\Snapkins1.jpg","","","","","Memory","false","null","","","",""
"","null","html-keyboard-response","66","2.0.0","167257","pe7o54mbpf0","hedgehog","null","<div style=""font-size:60px; color: black;"">+</div>","","","","","","","","","","",""
"","null","image-keyboard-response","67","2.0.0","169267","pe7o54mbpf0","hedgehog","null","stimuli\STATE\USED\Spestle1.jpg","","","","","Memory","false","null","","","",""
"","null","html-keyboard-response","68","2.0.0","169780","pe7o54mbpf0","hedgehog","null","<div style=""font-size:60px; color: black;"">+</div>","","","","","","","","","","",""
"","null","image-keyboard-response","69","2.0.0","171791","pe7o54mbpf0","hedgehog","null","stimuli\EXEMPLAR\USED\Ehorn1.jpg","","","","","Memory","false","null","","","",""
"","null","html-keyboard-response","70","2.0.0","172306","pe7o54mbpf0","hedgehog","null","<div style=""font-size:60px; color: black;"">+</div>","","","","","","","","","","",""
"","null","image-keyboard-response","71","2.0.0","174314","pe7o54mbpf0","hedgehog","null","stimuli\EXEMPLAR\USED\Eheadphones1.jpg","","","","","Memory","false","null","","","",""
"","null","html-keyboard-response","72","2.0.0","174829","pe7o54mbpf0","hedgehog","null","<div style=""font-size:60px; color: black;"">+</div>","","","","","","","","","","",""
"","null","image-keyboard-response","73","2.0.0","176832","pe7o54mbpf0","hedgehog","null","stimuli\STATE\USED\Sbrushes2.jpg","","","","","Memory","false","null","","","",""
"","null","html-keyboard-response","74","2.0.0","177345","pe7o54mbpf0","hedgehog","null","<div style=""font-size:60px; color: black;"">+</div>","","","","","","","","","","",""
"","829","image-keyboard-response","75","2.0.0","179359","pe7o54mbpf0","hedgehog"," ","stimuli\STATE\USED\Spestle1.jpg","","","","","Memory","true","true","","","",""
"","null","html-keyboard-response","76","2.0.0","179873","pe7o54mbpf0","hedgehog","null","<div style=""font-size:60px; color: green;"">+</div>","","","","","","","","","","",""
"","null","image-keyboard-response","77","2.0.0","181881","pe7o54mbpf0","hedgehog","null","stimuli\EXEMPLAR\USED\Eframe2.jpg","","","","","Memory","false","null","","","",""
"","null","html-keyboard-response","78","2.0.0","182383","pe7o54mbpf0","hedgehog","null","<div style=""font-size:60px; color: black;"">+</div>","","","","","","","","","","",""
"","null","image-keyboard-response","79","2.0.0","184398","pe7o54mbpf0","hedgehog","null","stimuli\STATE\USED\Sdryer2.jpg","","","","","Memory","false","null","","","",""
"","null","html-keyboard-response","80","2.0.0","184914","pe7o54mbpf0","hedgehog","null","<div style=""font-size:60px; color: black;"">+</div>","","","","","","","","","","",""
"","null","image-keyboard-response","81","2.0.0","186926","pe7o54mbpf0","hedgehog","null","stimuli\EXEMPLAR\USED\Eswimsuit1.jpg","","","","","Memory","false","null","","","",""
"","null","html-keyboard-response","82","2.0.0","187443","pe7o54mbpf0","hedgehog","null","<div style=""font-size:60px; color: black;"">+</div>","","","","","","","","","","",""
"","null","image-keyboard-response","83","2.0.0","189459","pe7o54mbpf0","hedgehog","null","stimuli\STATE\USED\Slaptop1.JPG","","","","","Memory","false","null","","","",""
"","null","html-keyboard-response","84","2.0.0","189960","pe7o54mbpf0","hedgehog","null","<div style=""font-size:60px; color: black;"">+</div>","","","","","","","","","","",""
"","null","image-keyboard-response","85","2.0.0","191968","pe7o54mbpf0","hedgehog","null","stimuli\STATE\USED\Sdresser2.jpg","","","","","Memory","false","null","","","",""
"","null","html-keyboard-response","86","2.0.0","192481","pe7o54mbpf0","hedgehog","null","<div style=""font-size:60px; color: black;"">+</div>","","","","","","","","","","",""
"","null","image-keyboard-response","87","2.0.0","194489","pe7o54mbpf0","hedgehog","null","stimuli\EXEMPLAR\USED\Etrophy1.jpg","","","","","Memory","false","null","","","",""
"","null","html-keyboard-response","88","2.0.0","194998","pe7o54mbpf0","hedgehog","null","<div style=""font-size:60px; color: black;"">+</div>","","","","","","","","","","",""
"","null","image-keyboard-response","89","2.0.0","197003","pe7o54mbpf0","hedgehog","null","stimuli\STATE\USED\Sseats1.jpg","","","","","Memory","false","null","","","",""
"","null","html-keyboard-response","90","2.0.0","197505","pe7o54mbpf0","hedgehog","null","<div style=""font-size:60px; color: black;"">+</div>","","","","","","","","","","",""
"","null","image-keyboard-response","91","2.0.0","199512","pe7o54mbpf0","hedgehog","null","stimuli\STATE\USED\Shandsign2.JPG","","","","","Memory","false","null","","","",""
"","null","html-keyboard-response","92","2.0.0","200026","pe7o54mbpf0","hedgehog","null","<div style=""font-size:60px; color: black;"">+</div>","","","","","","","","","","",""
"","null","image-keyboard-response","93","2.0.0","202034","pe7o54mbpf0","hedgehog","null","stimuli\STATE\USED\Sdresser2.jpg","","","","","Memory","true","null","","","",""
"","null","html-keyboard-response","94","2.0.0","202546","pe7o54mbpf0","hedgehog","null","<div style=""font-size:60px; color: black;"">+</div>","","","","","","","","","","",""
"","null","image-keyboard-response","95","2.0.0","204555","pe7o54mbpf0","hedgehog","null","stimuli\STATE\USED\Spie1.JPG","","","","","Memory","false","null","","","",""
"","null","html-keyboard-response","96","2.0.0","205069","pe7o54mbpf0","hedgehog","null","<div style=""font-size:60px; color: black;"">+</div>","","","","","","","","","","",""
"","null","image-keyboard-response","97","2.0.0","207073","pe7o54mbpf0","hedgehog","null","stimuli\STATE\USED\Scoffeemaker1.JPG","","","","","Memory","false","null","","","",""
"","null","html-keyboard-response","98","2.0.0","207584","pe7o54mbpf0","hedgehog","null","<div style=""font-size:60px; color: black;"">+</div>","","","","","","","","","","",""
"","null","image-keyboard-response","99","2.0.0","209587","pe7o54mbpf0","hedgehog","null","stimuli\EXEMPLAR\USED\Eremote1.jpg","","","","","Memory","false","null","","","",""
"","null","html-keyboard-response","100","2.0.0","210100","pe7o54mbpf0","hedgehog","null","<div style=""font-size:60px; color: black;"">+</div>","","","","","","","","","","",""
"","null","image-keyboard-response","101","2.0.0","212110","pe7o54mbpf0","hedgehog","null","stimuli\STATE\USED\Saccordion2.jpg","","","","","Memory","false","null","","","",""
"","null","html-keyboard-response","102","2.0.0","212624","pe7o54mbpf0","hedgehog","null","<div style=""font-size:60px; color: black;"">+</div>","","","","","","","","","","",""
"","null","image-keyboard-response","103","2.0.0","214640","pe7o54mbpf0","hedgehog","null","stimuli\EXEMPLAR\USED\Eholepunch2.jpg","","","","","Memory","false","null","","","",""
"","null","html-keyboard-response","104","2.0.0","215154","pe7o54mbpf0","hedgehog","null","<div style=""font-size:60px; color: black;"">+</div>","","","","","","","","","","",""
"","917","image-keyboard-response","105","2.0.0","217162","pe7o54mbpf0","hedgehog"," ","stimuli\STATE\USED\Scoffeemaker1.JPG","","","","","Memory","true","true","","","",""
"","null","html-keyboard-response","106","2.0.0","217675","pe7o54mbpf0","hedgehog","null","<div style=""font-size:60px; color: green;"">+</div>","","","","","","","","","","",""
"","2067","html-button-response","107","2.0.0","219744","pe7o54mbpf0","hedgehog","0","Are you still there?","","","","","Attention Check","","","","","",""
"","null","image-keyboard-response","108","2.0.0","221759","pe7o54mbpf0","hedgehog","null","stimuli\EXEMPLAR\USED\Emedal2.jpg","","","","","Memory","false","null","","","",""
"","null","html-keyboard-response","109","2.0.0","222275","pe7o54mbpf0","hedgehog","null","<div style=""font-size:60px; color: black;"">+</div>","","","","","","","","","","",""
"","null","image-keyboard-response","110","2.0.0","224279","pe7o54mbpf0","hedgehog","null","stimuli\STATE\USED\Scateringtray2.jpg","","","","","Memory","false","null","","","",""
"","null","html-keyboard-response","111","2.0.0","224792","pe7o54mbpf0","hedgehog","null","<div style=""font-size:60px; color: black;"">+</div>","","","","","","","","","","",""
"","null","image-keyboard-response","112","2.0.0","226798","pe7o54mbpf0","hedgehog","null","stimuli\STATE\USED\Sflask1.jpg","","","","","Memory","false","null","","","",""
"","null","html-keyboard-response","113","2.0.0","227315","pe7o54mbpf0","hedgehog","null","<div style=""font-size:60px; color: black;"">+</div>","","","","","","","","","","",""
"","null","image-keyboard-response","114","2.0.0","229327","pe7o54mbpf0","hedgehog","null","stimuli\STATE\USED\Sdie2.jpg","","","","","Memory","false","null","","","",""
"","null","html-keyboard-response","115","2.0.0","229842","pe7o54mbpf0","hedgehog","null","<div style=""font-size:60px; color: black;"">+</div>","","","","","","","","","","",""
"","null","image-keyboard-response","116","2.0.0","231851","pe7o54mbpf0","hedgehog","null","stimuli\STATE\USED\Sbrie2.JPG","","","","","Memory","false","null","","","",""
"","null","html-keyboard-response","117","2.0.0","232366","pe7o54mbpf0","hedgehog","null","<div style=""font-size:60px; color: black;"">+</div>","","","","","","","","","","",""
"","null","image-keyboard-response","118","2.0.0","234373","pe7o54mbpf0","hedgehog","null","stimuli\STATE\USED\Spumpkinpie2.jpg","","","","","Memory","false","null","","","",""
"","null","html-keyboard-response","119","2.0.0","234888","pe7o54mbpf0","hedgehog","null","<div style=""font-size:60px; color: black;"">+</div>","","","","","","","","","","",""
"","838","image-keyboard-response","120","2.0.0","236900","pe7o54mbpf0","hedgehog"," ","stimuli\STATE\USED\Sflask1.jpg","","","","","Memory","true","true","","","",""
"","null","html-keyboard-response","121","2.0.0","237416","pe7o54mbpf0","hedgehog","null","<div style=""font-size:60px; color: green;"">+</div>","","","","","","","","","","",""
"","null","image-keyboard-response","122","2.0.0","239424","pe7o54mbpf0","hedgehog","null","stimuli\EXEMPLAR\USED\Ebonzai2.jpg","","","","","Memory","false","null","","","",""
"","null","html-keyboard-response","123","2.0.0","239939","pe7o54mbpf0","hedgehog","null","<div style=""font-size:60px; color: black;"">+</div>","","","","","","","","","","",""
"","null","image-keyboard-response","124","2.0.0","241943","pe7o54mbpf0","hedgehog","null","stimuli\STATE\USED\Saccordionsmall2.JPG","","","","","Memory","false","null","","","",""
"","null","html-keyboard-response","125","2.0.0","242457","pe7o54mbpf0","hedgehog","null","<div style=""font-size:60px; color: black;"">+</div>","","","","","","","","","","",""
"","null","image-keyboard-response","126","2.0.0","244473","pe7o54mbpf0","hedgehog","null","stimuli\STATE\USED\Sdishes2.JPG","","","","","Memory","false","null","","","",""
"","null","html-keyboard-response","127","2.0.0","244987","pe7o54mbpf0","hedgehog","null","<div style=""font-size:60px; color: black;"">+</div>","","","","","","","","","","",""
"","null","image-keyboard-response","128","2.0.0","247001","pe7o54mbpf0","hedgehog","null","stimuli\EXEMPLAR\USED\Epeppers1.jpg","","","","","Memory","false","null","","","",""
"","null","html-keyboard-response","129","2.0.0","247514","pe7o54mbpf0","hedgehog","null","<div style=""font-size:60px; color: black;"">+</div>","","","","","","","","","","",""
"","null","image-keyboard-response","130","2.0.0","249530","pe7o54mbpf0","hedgehog","null","stimuli\EXEMPLAR\USED\Etractor1.jpg","","","","","Memory","false","null","","","",""
"","null","html-keyboard-response","131","2.0.0","250040","pe7o54mbpf0","hedgehog","null","<div style=""font-size:60px; color: black;"">+</div>","","","","","","","","","","",""
"","null","image-keyboard-response","132","2.0.0","252042","pe7o54mbpf0","hedgehog","null","stimuli\STATE\USED\Sdishwasher1.jpg","","","","","Memory","false","null","","","",""
"","null","html-keyboard-response","133","2.0.0","252557","pe7o54mbpf0","hedgehog","null","<div style=""font-size:60px; color: black;"">+</div>","","","","","","","","","","",""
"","874","image-keyboard-response","134","2.0.0","254570","pe7o54mbpf0","hedgehog"," ","stimuli\STATE\USED\Sdishes2.JPG","","","","","Memory","true","true","","","",""
"","null","html-keyboard-response","135","2.0.0","255076","pe7o54mbpf0","hedgehog","null","<div style=""font-size:60px; color: green;"">+</div>","","","","","","","","","","",""
"","null","image-keyboard-response","136","2.0.0","257086","pe7o54mbpf0","hedgehog","null","stimuli\STATE\USED\Sbelt2.jpg","","","","","Memory","false","null","","","",""
"","null","html-keyboard-response","137","2.0.0","257600","pe7o54mbpf0","hedgehog","null","<div style=""font-size:60px; color: black;"">+</div>","","","","","","","","","","",""
"","null","image-keyboard-response","138","2.0.0","259615","pe7o54mbpf0","hedgehog","null","stimuli\EXEMPLAR\USED\Escroll1.jpg","","","","","Memory","false","null","","","",""
"","null","html-keyboard-response","139","2.0.0","260128","pe7o54mbpf0","hedgehog","null","<div style=""font-size:60px; color: black;"">+</div>","","","","","","","","","","",""
"","null","image-keyboard-response","140","2.0.0","262144","pe7o54mbpf0","hedgehog","null","stimuli\EXEMPLAR\USED\Ewineglass1.jpg","","","","","Memory","false","null","","","",""
"","null","html-keyboard-response","141","2.0.0","262655","pe7o54mbpf0","hedgehog","null","<div style=""font-size:60px; color: black;"">+</div>","","","","","","","","","","",""
"","null","image-keyboard-response","142","2.0.0","264662","pe7o54mbpf0","hedgehog","null","stimuli\STATE\USED\Siron1.jpg","","","","","Memory","false","null","","","",""
"","null","html-keyboard-response","143","2.0.0","265177","pe7o54mbpf0","hedgehog","null","<div style=""font-size:60px; color: black;"">+</div>","","","","","","","","","","",""
"","1398","image-keyboard-response","144","2.0.0","267182","pe7o54mbpf0","hedgehog"," ","stimuli\STATE\USED\Sbelt2.jpg","","","","","Memory","true","true","","","",""
"","null","html-keyboard-response","145","2.0.0","267693","pe7o54mbpf0","hedgehog","null","<div style=""font-size:60px; color: green;"">+</div>","","","","","","","","","","",""
"","null","image-keyboard-response","146","2.0.0","269697","pe7o54mbpf0","hedgehog","null","stimuli\EXEMPLAR\USED\Eicecream2.jpg","","","","","Memory","false","null","","","",""
"","null","html-keyboard-response","147","2.0.0","270211","pe7o54mbpf0","hedgehog","null","<div style=""font-size:60px; color: black;"">+</div>","","","","","","","","","","",""
"","null","image-keyboard-response","148","2.0.0","272224","pe7o54mbpf0","hedgehog","null","stimuli\STATE\USED\Stypewriter1.jpg","","","","","Memory","false","null","","","",""
"","null","html-keyboard-response","149","2.0.0","272725","pe7o54mbpf0","hedgehog","null","<div style=""font-size:60px; color: black;"">+</div>","","","","","","","","","","",""
"","null","image-keyboard-response","150","2.0.0","274738","pe7o54mbpf0","hedgehog","null","stimuli\STATE\USED\Sscales2.jpg","","","","","Memory","false","null","","","",""
"","null","html-keyboard-response","151","2.0.0","275240","pe7o54mbpf0","hedgehog","null","<div style=""font-size:60px; color: black;"">+</div>","","","","","","","","","","",""
"","null","image-keyboard-response","152","2.0.0","277255","pe7o54mbpf0","hedgehog","null","stimuli\EXEMPLAR\USED\Etrowel2.jpg","","","","","Memory","false","null","","","",""
"","null","html-keyboard-response","153","2.0.0","277769","pe7o54mbpf0","hedgehog","null","<div style=""font-size:60px; color: black;"">+</div>","","","","","","","","","","",""
"","null","image-keyboard-response","154","2.0.0","279778","pe7o54mbpf0","hedgehog","null","stimuli\STATE\USED\Ssweater2.jpg","","","","","Memory","false","null","","","",""
"","null","html-keyboard-response","155","2.0.0","280291","pe7o54mbpf0","hedgehog","null","<div style=""font-size:60px; color: black;"">+</div>","","","","","","","","","","",""
"","null","image-keyboard-response","156","2.0.0","282304","pe7o54mbpf0","hedgehog","null","stimuli\EXEMPLAR\USED\Ekayak2.jpg","","","","","Memory","false","null","","","",""
"","null","html-keyboard-response","157","2.0.0","282817","pe7o54mbpf0","hedgehog","null","<div style=""font-size:60px; color: black;"">+</div>","","","","","","","","","","",""
"","678","image-keyboard-response","158","2.0.0","284825","pe7o54mbpf0","hedgehog"," ","stimuli\STATE\USED\Sscales2.jpg","","","","","Memory","true","true","","","",""
"","null","html-keyboard-response","159","2.0.0","285340","pe7o54mbpf0","hedgehog","null","<div style=""font-size:60px; color: green;"">+</div>","","","","","","","","","","",""
"","null","image-keyboard-response","160","2.0.0","287345","pe7o54mbpf0","hedgehog","null","stimuli\EXEMPLAR\USED\Edinosaur2.jpg","","","","","Memory","false","null","","","",""
"","null","html-keyboard-response","161","2.0.0","287859","pe7o54mbpf0","hedgehog","null","<div style=""font-size:60px; color: black;"">+</div>","","","","","","","","","","",""
"","null","image-keyboard-response","162","2.0.0","289863","pe7o54mbpf0","hedgehog","null","stimuli\EXEMPLAR\USED\Ebinoculars1.jpg","","","","","Memory","false","null","","","",""
"","null","html-keyboard-response","163","2.0.0","290377","pe7o54mbpf0","hedgehog","null","<div style=""font-size:60px; color: black;"">+</div>","","","","","","","","","","",""
"","null","image-keyboard-response","164","2.0.0","292389","pe7o54mbpf0","hedgehog","null","stimuli\EXEMPLAR\USED\Ebicycle2.jpg","","","","","Memory","false","null","","","",""
"","null","html-keyboard-response","165","2.0.0","292897","pe7o54mbpf0","hedgehog","null","<div style=""font-size:60px; color: black;"">+</div>","","","","","","","","","","",""
"","null","image-keyboard-response","166","2.0.0","294907","pe7o54mbpf0","hedgehog","null","stimuli\STATE\USED\Sbriefcasemetal2.JPG","","","","","Memory","false","null","","","",""
"","null","html-keyboard-response","167","2.0.0","295419","pe7o54mbpf0","hedgehog","null","<div style=""font-size:60px; color: black;"">+</div>","","","","","","","","","","",""
"","null","image-keyboard-response","168","2.0.0","297427","pe7o54mbpf0","hedgehog","null","stimuli\EXEMPLAR\USED\Ebell1.jpg","","","","","Memory","false","null","","","",""
"","null","html-keyboard-response","169","2.0.0","297941","pe7o54mbpf0","hedgehog","null","<div style=""font-size:60px; color: black;"">+</div>","","","","","","","","","","",""
"","737","image-keyboard-response","170","2.0.0","299946","pe7o54mbpf0","hedgehog"," ","stimuli\EXEMPLAR\USED\Ebinoculars1.jpg","","","","","Memory","true","true","","","",""
"","null","html-keyboard-response","171","2.0.0","300458","pe7o54mbpf0","hedgehog","null","<div style=""font-size:60px; color: green;"">+</div>","","","","","","","","","","",""
"","null","image-keyboard-response","172","2.0.0","302472","pe7o54mbpf0","hedgehog","null","stimuli\STATE\USED\Sbarnmailbox2.jpg","","","","","Memory","false","null","","","",""
"","null","html-keyboard-response","173","2.0.0","302986","pe7o54mbpf0","hedgehog","null","<div style=""font-size:60px; color: black;"">+</div>","","","","","","","","","","",""
"","null","image-keyboard-response","174","2.0.0","304995","pe7o54mbpf0","hedgehog","null","stimuli\STATE\USED\Spadlock1.jpg","","","","","Memory","false","null","","","",""
"","null","html-keyboard-response","175","2.0.0","305511","pe7o54mbpf0","hedgehog","null","<div style=""font-size:60px; color: black;"">+</div>","","","","","","","","","","",""
"","null","image-keyboard-response","176","2.0.0","307521","pe7o54mbpf0","hedgehog","null","stimuli\EXEMPLAR\USED\Econe1.jpg","","","","","Memory","false","null","","","",""
"","null","html-keyboard-response","177","2.0.0","308034","pe7o54mbpf0","hedgehog","null","<div style=""font-size:60px; color: black;"">+</div>","","","","","","","","","","",""
"","null","image-keyboard-response","178","2.0.0","310043","pe7o54mbpf0","hedgehog","null","stimuli\STATE\USED\Sdoughhands2.jpg","","","","","Memory","false","null","","","",""
"","null","html-keyboard-response","179","2.0.0","310557","pe7o54mbpf0","hedgehog","null","<div style=""font-size:60px; color: black;"">+</div>","","","","","","","","","","",""
"","null","image-keyboard-response","180","2.0.0","312571","pe7o54mbpf0","hedgehog","null","stimuli\EXEMPLAR\USED\Etongs2.jpg","","","","","Memory","false","null","","","",""
"","null","html-keyboard-response","181","2.0.0","313072","pe7o54mbpf0","hedgehog","null","<div style=""font-size:60px; color: black;"">+</div>","","","","","","","","","","",""
"","null","image-keyboard-response","182","2.0.0","315083","pe7o54mbpf0","hedgehog","null","stimuli\STATE\USED\Shairbrush2.jpg","","","","","Memory","false","null","","","",""
"","null","html-keyboard-response","183","2.0.0","315598","pe7o54mbpf0","hedgehog","null","<div style=""font-size:60px; color: black;"">+</div>","","","","","","","","","","",""
"","null","image-keyboard-response","184","2.0.0","317599","pe7o54mbpf0","hedgehog","null","stimuli\EXEMPLAR\USED\Elog2.jpg","","","","","Memory","false","null","","","",""
"","null","html-keyboard-response","185","2.0.0","318103","pe7o54mbpf0","hedgehog","null","<div style=""font-size:60px; color: black;"">+</div>","","","","","","","","","","",""
"","null","image-keyboard-response","186","2.0.0","320107","pe7o54mbpf0","hedgehog","null","stimuli\STATE\USED\Sbreadslice1.jpg","","","","","Memory","false","null","","","",""
"","null","html-keyboard-response","187","2.0.0","320621","pe7o54mbpf0","hedgehog","null","<div style=""font-size:60px; color: black;"">+</div>","","","","","","","","","","",""
"","null","image-keyboard-response","188","2.0.0","322630","pe7o54mbpf0","hedgehog","null","stimuli\EXEMPLAR\USED\Etoyplane1.jpg","","","","","Memory","false","null","","","",""
"","null","html-keyboard-response","189","2.0.0","323140","pe7o54mbpf0","hedgehog","null","<div style=""font-size:60px; color: black;"">+</div>","","","","","","","","","","",""
"","null","image-keyboard-response","190","2.0.0","325152","pe7o54mbpf0","hedgehog","null","stimuli\EXEMPLAR\USED\Ebunny1.jpg","","","","","Memory","false","null","","","",""
"","null","html-keyboard-response","191","2.0.0","325662","pe7o54mbpf0","hedgehog","null","<div style=""font-size:60px; color: black;"">+</div>","","","","","","","","","","",""
"","null","image-keyboard-response","192","2.0.0","327664","pe7o54mbpf0","hedgehog","null","stimuli\STATE\USED\Sbabytoy2.JPG","","","","","Memory","false","null","","","",""
"","null","html-keyboard-response","193","2.0.0","328174","pe7o54mbpf0","hedgehog","null","<div style=""font-size:60px; color: black;"">+</div>","","","","","","","","","","",""
"","null","image-keyboard-response","194","2.0.0","330178","pe7o54mbpf0","hedgehog","null","stimuli\EXEMPLAR\USED\Ehanger2.jpg","","","","","Memory","false","null","","","",""
"","null","html-keyboard-response","195","2.0.0","330689","pe7o54mbpf0","hedgehog","null","<div style=""font-size:60px; color: black;"">+</div>","","","","","","","","","","",""
"","null","image-keyboard-response","196","2.0.0","332700","pe7o54mbpf0","hedgehog","null","stimuli\STATE\USED\Shandmirror2.jpg","","","","","Memory","false","null","","","",""
"","null","html-keyboard-response","197","2.0.0","333215","pe7o54mbpf0","hedgehog","null","<div style=""font-size:60px; color: black;"">+</div>","","","","","","","","","","",""
"","null","image-keyboard-response","198","2.0.0","335226","pe7o54mbpf0","hedgehog","null","stimuli\STATE\USED\Stiger1.jpg","","","","","Memory","false","null","","","",""
"","null","html-keyboard-response","199","2.0.0","335737","pe7o54mbpf0","hedgehog","null","<div style=""font-size:60px; color: black;"">+</div>","","","","","","","","","","",""
"","null","image-keyboard-response","200","2.0.0","337744","pe7o54mbpf0","hedgehog","null","stimuli\EXEMPLAR\USED\Epiano1.jpg","","","","","Memory","false","null","","","",""
"","null","html-keyboard-response","201","2.0.0","338248","pe7o54mbpf0","hedgehog","null","<div style=""font-size:60px; color: black;"">+</div>","","","","","","","","","","",""
"","null","image-keyboard-response","202","2.0.0","340261","pe7o54mbpf0","hedgehog","null","stimuli\EXEMPLAR\USED\Efishbowl1.jpg","","","","","Memory","false","null","","","",""
"","null","html-keyboard-response","203","2.0.0","340773","pe7o54mbpf0","hedgehog","null","<div style=""font-size:60px; color: black;"">+</div>","","","","","","","","","","",""
"","null","image-keyboard-response","204","2.0.0","342785","pe7o54mbpf0","hedgehog","null","stimuli\STATE\USED\Swaffleiron2.jpg","","","","","Memory","false","null","","","",""
"","null","html-keyboard-response","205","2.0.0","343299","pe7o54mbpf0","hedgehog","null","<div style=""font-size:60px; color: black;"">+</div>","","","","","","","","","","",""
"","788","image-keyboard-response","206","2.0.0","345309","pe7o54mbpf0","hedgehog"," ","stimuli\STATE\USED\Stiger1.jpg","","","","","Memory","true","true","","","",""
"","null","html-keyboard-response","207","2.0.0","345824","pe7o54mbpf0","hedgehog","null","<div style=""font-size:60px; color: green;"">+</div>","","","","","","","","","","",""
"","null","image-keyboard-response","208","2.0.0","347833","pe7o54mbpf0","hedgehog","null","stimuli\EXEMPLAR\USED\Ecamera2.jpg","","","","","Memory","false","null","","","",""
"","null","html-keyboard-response","209","2.0.0","348345","pe7o54mbpf0","hedgehog","null","<div style=""font-size:60px; color: black;"">+</div>","","","","","","","","","","",""
"","1374","html-button-response","210","2.0.0","349720","pe7o54mbpf0","hedgehog","0","Are you still there?","","","","","Attention Check","","","","","",""
"","null","image-keyboard-response","211","2.0.0","351727","pe7o54mbpf0","hedgehog","null","stimuli\EXEMPLAR\USED\Eremover2.jpg","","","","","Memory","false","null","","","",""
"","null","html-keyboard-response","212","2.0.0","352237","pe7o54mbpf0","hedgehog","null","<div style=""font-size:60px; color: black;"">+</div>","","","","","","","","","","",""
"","null","image-keyboard-response","213","2.0.0","354247","pe7o54mbpf0","hedgehog","null","stimuli\STATE\USED\Spiggybank1.jpg","","","","","Memory","false","null","","","",""
"","null","html-keyboard-response","214","2.0.0","354759","pe7o54mbpf0","hedgehog","null","<div style=""font-size:60px; color: black;"">+</div>","","","","","","","","","","",""
"","null","image-keyboard-response","215","2.0.0","356768","pe7o54mbpf0","hedgehog","null","stimuli\EXEMPLAR\USED\Etoywrench1.jpg","","","","","Memory","false","null","","","",""
"","null","html-keyboard-response","216","2.0.0","357282","pe7o54mbpf0","hedgehog","null","<div style=""font-size:60px; color: black;"">+</div>","","","","","","","","","","",""
"","null","image-keyboard-response","217","2.0.0","359292","pe7o54mbpf0","hedgehog","null","stimuli\EXEMPLAR\USED\Epotatochips2.jpg","","","","","Memory","false","null","","","",""
"","null","html-keyboard-response","218","2.0.0","359803","pe7o54mbpf0","hedgehog","null","<div style=""font-size:60px; color: black;"">+</div>","","","","","","","","","","",""
"","null","image-keyboard-response","219","2.0.0","361813","pe7o54mbpf0","hedgehog","null","stimuli\EXEMPLAR\USED\Etoyhand2.jpg","","","","","Memory","false","null","","","",""
"","null","html-keyboard-response","220","2.0.0","362326","pe7o54mbpf0","hedgehog","null","<div style=""font-size:60px; color: black;"">+</div>","","","","","","","","","","",""
"","null","image-keyboard-response","221","2.0.0","364328","pe7o54mbpf0","hedgehog","null","stimuli\EXEMPLAR\USED\Eladder2.jpg","","","","","Memory","false","null","","","",""
"","null","html-keyboard-response","222","2.0.0","364843","pe7o54mbpf0","hedgehog","null","<div style=""font-size:60px; color: black;"">+</div>","","","","","","","","","","",""
"","null","image-keyboard-response","223","2.0.0","366858","pe7o54mbpf0","hedgehog","null","stimuli\EXEMPLAR\USED\Ebracelet2.jpg","","","","","Memory","false","null","","","",""
"","null","html-keyboard-response","224","2.0.0","367374","pe7o54mbpf0","hedgehog","null","<div style=""font-size:60px; color: black;"">+</div>","","","","","","","","","","",""
"","null","image-keyboard-response","225","2.0.0","369379","pe7o54mbpf0","hedgehog","null","stimuli\STATE\USED\Sgiftbag2.jpg","","","","","Memory","false","null","","","",""
"","null","html-keyboard-response","226","2.0.0","369894","pe7o54mbpf0","hedgehog","null","<div style=""font-size:60px; color: black;"">+</div>","","","","","","","","","","",""
"","null","image-keyboard-response","227","2.0.0","371909","pe7o54mbpf0","hedgehog","null","stimuli\STATE\USED\Sgiftbox2.jpg","","","","","Memory","false","null","","","",""
"","null","html-keyboard-response","228","2.0.0","372425","pe7o54mbpf0","hedgehog","null","<div style=""font-size:60px; color: black;"">+</div>","","","","","","","","","","",""
"","null","image-keyboard-response","229","2.0.0","374431","pe7o54mbpf0","hedgehog","null","stimuli\STATE\USED\Sscissors1.JPG","","","","","Memory","false","null","","","",""
"","null","html-keyboard-response","230","2.0.0","374946","pe7o54mbpf0","hedgehog","null","<div style=""font-size:60px; color: black;"">+</div>","","","","","","","","","","",""
"","null","image-keyboard-response","231","2.0.0","376960","pe7o54mbpf0","hedgehog","null","stimuli\EXEMPLAR\USED\Esunglasses1.jpg","","","","","Memory","false","null","","","",""
"","null","html-keyboard-response","232","2.0.0","377473","pe7o54mbpf0","hedgehog","null","<div style=""font-size:60px; color: black;"">+</div>","","","","","","","","","","",""
"","null","image-keyboard-response","233","2.0.0","379476","pe7o54mbpf0","hedgehog","null","stimuli\EXEMPLAR\USED\Ecake1.jpg","","","","","Memory","false","null","","","",""
"","null","html-keyboard-response","234","2.0.0","379985","pe7o54mbpf0","hedgehog","null","<div style=""font-size:60px; color: black;"">+</div>","","","","","","","","","","",""
"","null","image-keyboard-response","235","2.0.0","382001","pe7o54mbpf0","hedgehog","null","stimuli\STATE\USED\Spicnicbasket2.jpg","","","","","Memory","false","null","","","",""
"","null","html-keyboard-response","236","2.0.0","382512","pe7o54mbpf0","hedgehog","null","<div style=""font-size:60px; color: black;"">+</div>","","","","","","","","","","",""
"","null","image-keyboard-response","237","2.0.0","384522","pe7o54mbpf0","hedgehog","null","stimuli\STATE\USED\Sapplesredbasket2.JPG","","","","","Memory","false","null","","","",""
"","null","html-keyboard-response","238","2.0.0","385036","pe7o54mbpf0","hedgehog","null","<div style=""font-size:60px; color: black;"">+</div>","","","","","","","","","","",""
"","null","image-keyboard-response","239","2.0.0","387044","pe7o54mbpf0","hedgehog","null","stimuli\STATE\USED\Scooker1.jpg","","","","","Memory","false","null","","","",""
"","null","html-keyboard-response","240","2.0.0","387559","pe7o54mbpf0","hedgehog","null","<div style=""font-size:60px; color: black;"">+</div>","","","","","","","","","","",""
"","951","image-keyboard-response","241","2.0.0","389576","pe7o54mbpf0","hedgehog"," ","stimuli\EXEMPLAR\USED\Ecake1.jpg","","","","","Memory","true","true","","","",""
"","null","html-keyboard-response","242","2.0.0","390089","pe7o54mbpf0","hedgehog","null","<div style=""font-size:60px; color: green;"">+</div>","","","","","","","","","","",""
"","null","image-keyboard-response","243","2.0.0","392105","pe7o54mbpf0","hedgehog","null","stimuli\EXEMPLAR\USED\Eturtle1.jpg","","","","","Memory","false","null","","","",""
"","null","html-keyboard-response","244","2.0.0","392621","pe7o54mbpf0","hedgehog","null","<div style=""font-size:60px; color: black;"">+</div>","","","","","","","","","","",""
"","null","image-keyboard-response","245","2.0.0","394628","pe7o54mbpf0","hedgehog","null","stimuli\STATE\USED\Sclipboard2.jpg","","","","","Memory","false","null","","","",""
"","null","html-keyboard-response","246","2.0.0","395143","pe7o54mbpf0","hedgehog","null","<div style=""font-size:60px; color: black;"">+</div>","","","","","","","","","","",""
"","null","image-keyboard-response","247","2.0.0","397155","pe7o54mbpf0","hedgehog","null","stimuli\EXEMPLAR\USED\Eplate1.jpg","","","","","Memory","false","null","","","",""
"","null","html-keyboard-response","248","2.0.0","397668","pe7o54mbpf0","hedgehog","null","<div style=""font-size:60px; color: black;"">+</div>","","","","","","","","","","",""
"","null","image-keyboard-response","249","2.0.0","399677","pe7o54mbpf0","hedgehog","null","stimuli\STATE\USED\Spatiotable2.jpg","","","","","Memory","false","null","","","",""
"","null","html-keyboard-response","250","2.0.0","400187","pe7o54mbpf0","hedgehog","null","<div style=""font-size:60px; color: black;"">+</div>","","","","","","","","","","",""
"","null","image-keyboard-response","251","2.0.0","402198","pe7o54mbpf0","hedgehog","null","stimuli\STATE\USED\Sdonut1.jpg","","","","","Memory","false","null","","","",""
"","null","html-keyboard-response","252","2.0.0","402712","pe7o54mbpf0","hedgehog","null","<div style=""font-size:60px; color: black;"">+</div>","","","","","","","","","","",""
"","null","image-keyboard-response","253","2.0.0","404715","pe7o54mbpf0","hedgehog","null","stimuli\STATE\USED\Sbooks2.JPG","","","","","Memory","false","null","","","",""
"","null","html-keyboard-response","254","2.0.0","405228","pe7o54mbpf0","hedgehog","null","<div style=""font-size:60px; color: black;"">+</div>","","","","","","","","","","",""
"","null","image-keyboard-response","255","2.0.0","407242","pe7o54mbpf0","hedgehog","null","stimuli\STATE\USED\Shandshake1.JPG","","","","","Memory","false","null","","","",""
"","null","html-keyboard-response","256","2.0.0","407756","pe7o54mbpf0","hedgehog","null","<div style=""font-size:60px; color: black;"">+</div>","","","","","","","","","","",""
"","null","image-keyboard-response","257","2.0.0","409761","pe7o54mbpf0","hedgehog","null","stimuli\EXEMPLAR\USED\Eglobe1.jpg","","","","","Memory","false","null","","","",""
"","null","html-keyboard-response","258","2.0.0","410276","pe7o54mbpf0","hedgehog","null","<div style=""font-size:60px; color: black;"">+</div>","","","","","","","","","","",""
"","null","image-keyboard-response","259","2.0.0","412288","pe7o54mbpf0","hedgehog","null","stimuli\EXEMPLAR\USED\Ebread1.jpg","","","","","Memory","false","null","","","",""
"","null","html-keyboard-response","260","2.0.0","412803","pe7o54mbpf0","hedgehog","null","<div style=""font-size:60px; color: black;"">+</div>","","","","","","","","","","",""
"","null","image-keyboard-response","261","2.0.0","414814","pe7o54mbpf0","hedgehog","null","stimuli\EXEMPLAR\USED\Emuffin1.jpg","","","","","Memory","false","null","","","",""
"","null","html-keyboard-response","262","2.0.0","415326","pe7o54mbpf0","hedgehog","null","<div style=""font-size:60px; color: black;"">+</div>","","","","","","","","","","",""
"","null","image-keyboard-response","263","2.0.0","417338","pe7o54mbpf0","hedgehog","null","stimuli\STATE\USED\Sstoplight1.jpg","","","","","Memory","false","null","","","",""
"","null","html-keyboard-response","264","2.0.0","417852","pe7o54mbpf0","hedgehog","null","<div style=""font-size:60px; color: black;"">+</div>","","","","","","","","","","",""
"","674","image-keyboard-response","265","2.0.0","419865","pe7o54mbpf0","hedgehog"," ","stimuli\EXEMPLAR\USED\Eglobe1.jpg","","","","","Memory","true","true","","","",""
"","null","html-keyboard-response","266","2.0.0","420380","pe7o54mbpf0","hedgehog","null","<div style=""font-size:60px; color: green;"">+</div>","","","","","","","","","","",""
"","null","image-keyboard-response","267","2.0.0","422391","pe7o54mbpf0","hedgehog","null","stimuli\EXEMPLAR\USED\Erazor1.jpg","","","","","Memory","false","null","","","",""
"","null","html-keyboard-response","268","2.0.0","422897","pe7o54mbpf0","hedgehog","null","<div style=""font-size:60px; color: black;"">+</div>","","","","","","","","","","",""
"","null","image-keyboard-response","269","2.0.0","424900","pe7o54mbpf0","hedgehog","null","stimuli\EXEMPLAR\USED\Edispenser2.jpg","","","","","Memory","false","null","","","",""
"","null","html-keyboard-response","270","2.0.0","425401","pe7o54mbpf0","hedgehog","null","<div style=""font-size:60px; color: black;"">+</div>","","","","","","","","","","",""
"","null","image-keyboard-response","271","2.0.0","427414","pe7o54mbpf0","hedgehog","null","stimuli\STATE\USED\Seggplant2.jpg","","","","","Memory","false","null","","","",""
"","null","html-keyboard-response","272","2.0.0","427923","pe7o54mbpf0","hedgehog","null","<div style=""font-size:60px; color: black;"">+</div>","","","","","","","","","","",""
"","null","image-keyboard-response","273","2.0.0","429930","pe7o54mbpf0","hedgehog","null","stimuli\STATE\USED\Sbook2.JPG","","","","","Memory","false","null","","","",""
"","null","html-keyboard-response","274","2.0.0","430443","pe7o54mbpf0","hedgehog","null","<div style=""font-size:60px; color: black;"">+</div>","","","","","","","","","","",""
"","null","image-keyboard-response","275","2.0.0","432449","pe7o54mbpf0","hedgehog","null","stimuli\STATE\USED\Sapplesgreenbasket1.jpg","","","","","Memory","false","null","","","",""
"","null","html-keyboard-response","276","2.0.0","432962","pe7o54mbpf0","hedgehog","null","<div style=""font-size:60px; color: black;"">+</div>","","","","","","","","","","",""
"","null","image-keyboard-response","277","2.0.0","434977","pe7o54mbpf0","hedgehog","null","stimuli\EXEMPLAR\USED\Emuffler2.jpg","","","","","Memory","false","null","","","",""
"","null","html-keyboard-response","278","2.0.0","435490","pe7o54mbpf0","hedgehog","null","<div style=""font-size:60px; color: black;"">+</div>","","","","","","","","","","",""
"","null","image-keyboard-response","279","2.0.0","437499","pe7o54mbpf0","hedgehog","null","stimuli\STATE\USED\Sumbrella1.jpg","","","","","Memory","false","null","","","",""
"","null","html-keyboard-response","280","2.0.0","438000","pe7o54mbpf0","hedgehog","null","<div style=""font-size:60px; color: black;"">+</div>","","","","","","","","","","",""
"","null","image-keyboard-response","281","2.0.0","440003","pe7o54mbpf0","hedgehog","null","stimuli\EXEMPLAR\USED\Eelectricbass2.jpg","","","","","Memory","false","null","","","",""
"","null","html-keyboard-response","282","2.0.0","440517","pe7o54mbpf0","hedgehog","null","<div style=""font-size:60px; color: black;"">+</div>","","","","","","","","","","",""
"","705","image-keyboard-response","283","2.0.0","442530","pe7o54mbpf0","hedgehog"," ","stimuli\STATE\USED\Sapplesgreenbasket1.jpg","","","","","Memory","true","true","","","",""
"","null","html-keyboard-response","284","2.0.0","443033","pe7o54mbpf0","hedgehog","null","<div style=""font-size:60px; color: green;"">+</div>","","","","","","","","","","",""
"","null","image-keyboard-response","285","2.0.0","445035","pe7o54mbpf0","hedgehog","null","stimuli\STATE\USED\Sdrum2.jpg","","","","","Memory","false","null","","","",""
"","null","html-keyboard-response","286","2.0.0","445549","pe7o54mbpf0","hedgehog","null","<div style=""font-size:60px; color: black;"">+</div>","","","","","","","","","","",""
"","null","image-keyboard-response","287","2.0.0","447558","pe7o54mbpf0","hedgehog","null","stimuli\EXEMPLAR\USED\Ehelmet1.jpg","","","","","Memory","false","null","","","",""
"","null","html-keyboard-response","288","2.0.0","448068","pe7o54mbpf0","hedgehog","null","<div style=""font-size:60px; color: black;"">+</div>","","","","","","","","","","",""
"","null","image-keyboard-response","289","2.0.0","450080","pe7o54mbpf0","hedgehog","null","stimuli\EXEMPLAR\USED\Emoney2.jpg","","","","","Memory","false","null","","","",""
"","null","html-keyboard-response","290","2.0.0","450592","pe7o54mbpf0","hedgehog","null","<div style=""font-size:60px; color: black;"">+</div>","","","","","","","","","","",""
"","null","image-keyboard-response","291","2.0.0","452601","pe7o54mbpf0","hedgehog","null","stimuli\STATE\USED\Sbureau1.JPG","","","","","Memory","false","null","","","",""
"","null","html-keyboard-response","292","2.0.0","453114","pe7o54mbpf0","hedgehog","null","<div style=""font-size:60px; color: black;"">+</div>","","","","","","","","","","",""
"","1005","image-keyboard-response","293","2.0.0","455126","pe7o54mbpf0","hedgehog"," ","stimuli\STATE\USED\Sdrum2.jpg","","","","","Memory","true","true","","","",""
"","null","html-keyboard-response","294","2.0.0","455639","pe7o54mbpf0","hedgehog","null","<div style=""font-size:60px; color: green;"">+</div>","","","","","","","","","","",""
"","null","image-keyboard-response","295","2.0.0","457652","pe7o54mbpf0","hedgehog","null","stimuli\EXEMPLAR\USED\Etrain2.jpg","","","","","Memory","false","null","","","",""
"","null","html-keyboard-response","296","2.0.0","458165","pe7o54mbpf0","hedgehog","null","<div style=""font-size:60px; color: black;"">+</div>","","","","","","","","","","",""
"","null","image-keyboard-response","297","2.0.0","460173","pe7o54mbpf0","hedgehog","null","stimuli\EXEMPLAR\USED\Elei2.jpg","","","","","Memory","false","null","","","",""
"","null","html-keyboard-response","298","2.0.0","460685","pe7o54mbpf0","hedgehog","null","<div style=""font-size:60px; color: black;"">+</div>","","","","","","","","","","",""
"","null","image-keyboard-response","299","2.0.0","462698","pe7o54mbpf0","hedgehog","null","stimuli\STATE\USED\Scontainer1.JPG","","","","","Memory","false","null","","","",""
"","null","html-keyboard-response","300","2.0.0","463209","pe7o54mbpf0","hedgehog","null","<div style=""font-size:60px; color: black;"">+</div>","","","","","","","","","","",""
"","null","image-keyboard-response","301","2.0.0","465221","pe7o54mbpf0","hedgehog","null","stimuli\STATE\USED\Sphone1.JPG","","","","","Memory","false","null","","","",""
"","null","html-keyboard-response","302","2.0.0","465733","pe7o54mbpf0","hedgehog","null","<div style=""font-size:60px; color: black;"">+</div>","","","","","","","","","","",""
"","938","image-keyboard-response","303","2.0.0","467744","pe7o54mbpf0","hedgehog"," ","stimuli\EXEMPLAR\USED\Etrain2.jpg","","","","","Memory","true","true","","","",""
"","null","html-keyboard-response","304","2.0.0","468253","pe7o54mbpf0","hedgehog","null","<div style=""font-size:60px; color: green;"">+</div>","","","","","","","","","","",""
"","null","image-keyboard-response","305","2.0.0","470264","pe7o54mbpf0","hedgehog","null","stimuli\EXEMPLAR\USED\Eballoon1.jpg","","","","","Memory","false","null","","","",""
"","null","html-keyboard-response","306","2.0.0","470777","pe7o54mbpf0","hedgehog","null","<div style=""font-size:60px; color: black;"">+</div>","","","","","","","","","","",""
"","null","image-keyboard-response","307","2.0.0","472780","pe7o54mbpf0","hedgehog","null","stimuli\EXEMPLAR\USED\Esantahat1.jpg","","","","","Memory","false","null","","","",""
"","null","html-keyboard-response","308","2.0.0","473293","pe7o54mbpf0","hedgehog","null","<div style=""font-size:60px; color: black;"">+</div>","","","","","","","","","","",""
"","null","image-keyboard-response","309","2.0.0","475304","pe7o54mbpf0","hedgehog","null","stimuli\EXEMPLAR\USED\Ecalculator2.jpg","","","","","Memory","false","null","","","",""
"","null","html-keyboard-response","310","2.0.0","475815","pe7o54mbpf0","hedgehog","null","<div style=""font-size:60px; color: black;"">+</div>","","","","","","","","","","",""
"","null","image-keyboard-response","311","2.0.0","477825","pe7o54mbpf0","hedgehog","null","stimuli\EXEMPLAR\USED\Egame2.jpg","","","","","Memory","false","null","","","",""
"","null","html-keyboard-response","312","2.0.0","478341","pe7o54mbpf0","hedgehog","null","<div style=""font-size:60px; color: black;"">+</div>","","","","","","","","","","",""
"","3709","html-button-response","313","2.0.0","482051","pe7o54mbpf0","hedgehog","0","Are you still there?","","","","","Attention Check","","","","","",""
"","null","image-keyboard-response","314","2.0.0","484056","pe7o54mbpf0","hedgehog","null","stimuli\STATE\USED\Sapple1.jpg","","","","","Memory","false","null","","","",""
"","null","html-keyboard-response","315","2.0.0","484568","pe7o54mbpf0","hedgehog","null","<div style=""font-size:60px; color: black;"">+</div>","","","","","","","","","","",""
"","null","image-keyboard-response","316","2.0.0","486572","pe7o54mbpf0","hedgehog","null","stimuli\EXEMPLAR\USED\Enozzle2.jpg","","","","","Memory","false","null","","","",""
"","null","html-keyboard-response","317","2.0.0","487086","pe7o54mbpf0","hedgehog","null","<div style=""font-size:60px; color: black;"">+</div>","","","","","","","","","","",""
"","1065","image-keyboard-response","318","2.0.0","489088","pe7o54mbpf0","hedgehog"," ","stimuli\EXEMPLAR\USED\Ecalculator2.jpg","","","","","Memory","true","true","","","",""
"","null","html-keyboard-response","319","2.0.0","489589","pe7o54mbpf0","hedgehog","null","<div style=""font-size:60px; color: green;"">+</div>","","","","","","","","","","",""
"","null","image-keyboard-response","320","2.0.0","491603","pe7o54mbpf0","hedgehog","null","stimuli\EXEMPLAR\USED\Erabbit2.jpg","","","","","Memory","false","null","","","",""
"","null","html-keyboard-response","321","2.0.0","492117","pe7o54mbpf0","hedgehog","null","<div style=""font-size:60px; color: black;"">+</div>","","","","","","","","","","",""
"","null","image-keyboard-response","322","2.0.0","494125","pe7o54mbpf0","hedgehog","null","stimuli\STATE\USED\Slockbox1.jpg","","","","","Memory","false","null","","","",""
"","null","html-keyboard-response","323","2.0.0","494627","pe7o54mbpf0","hedgehog","null","<div style=""font-size:60px; color: black;"">+</div>","","","","","","","","","","",""
"","null","image-keyboard-response","324","2.0.0","496637","pe7o54mbpf0","hedgehog","null","stimuli\STATE\USED\Smetronome2.JPG","","","","","Memory","false","null","","","",""
"","null","html-keyboard-response","325","2.0.0","497152","pe7o54mbpf0","hedgehog","null","<div style=""font-size:60px; color: black;"">+</div>","","","","","","","","","","",""
"","null","image-keyboard-response","326","2.0.0","499161","pe7o54mbpf0","hedgehog","null","stimuli\EXEMPLAR\USED\Eguitar1.jpg","","","","","Memory","false","null","","","",""
"","null","html-keyboard-response","327","2.0.0","499663","pe7o54mbpf0","hedgehog","null","<div style=""font-size:60px; color: black;"">+</div>","","","","","","","","","","",""
"","null","image-keyboard-response","328","2.0.0","501672","pe7o54mbpf0","hedgehog","null","stimuli\STATE\USED\Spolarbear2.jpg","","","","","Memory","false","null","","","",""
"","null","html-keyboard-response","329","2.0.0","502181","pe7o54mbpf0","hedgehog","null","<div style=""font-size:60px; color: black;"">+</div>","","","","","","","","","","",""
"","null","image-keyboard-response","330","2.0.0","504191","pe7o54mbpf0","hedgehog","null","stimuli\EXEMPLAR\USED\Earch2.jpg","","","","","Memory","false","null","","","",""
"","null","html-keyboard-response","331","2.0.0","504706","pe7o54mbpf0","hedgehog","null","<div style=""font-size:60px; color: black;"">+</div>","","","","","","","","","","",""
"","null","image-keyboard-response","332","2.0.0","506709","pe7o54mbpf0","hedgehog","null","stimuli\STATE\USED\Sscanner2.JPG","","","","","Memory","false","null","","","",""
"","null","html-keyboard-response","333","2.0.0","507221","pe7o54mbpf0","hedgehog","null","<div style=""font-size:60px; color: black;"">+</div>","","","","","","","","","","",""
"","922","image-keyboard-response","334","2.0.0","509234","pe7o54mbpf0","hedgehog"," ","stimuli\EXEMPLAR\USED\Eguitar1.jpg","","","","","Memory","true","true","","","",""
"","null","html-keyboard-response","335","2.0.0","509745","pe7o54mbpf0","hedgehog","null","<div style=""font-size:60px; color: green;"">+</div>","","","","","","","","","","",""
"","null","image-keyboard-response","336","2.0.0","511750","pe7o54mbpf0","hedgehog","null","stimuli\STATE\USED\Sjuiceglass1.JPG","","","","","Memory","false","null","","","",""
"","null","html-keyboard-response","337","2.0.0","512262","pe7o54mbpf0","hedgehog","null","<div style=""font-size:60px; color: black;"">+</div>","","","","","","","","","","",""
"","null","image-keyboard-response","338","2.0.0","514273","pe7o54mbpf0","hedgehog","null","stimuli\EXEMPLAR\USED\Echocolatebar2.jpg","","","","","Memory","false","null","","","",""
"","null","html-keyboard-response","339","2.0.0","514787","pe7o54mbpf0","hedgehog","null","<div style=""font-size:60px; color: black;"">+</div>","","","","","","","","","","",""
"","null","image-keyboard-response","340","2.0.0","516795","pe7o54mbpf0","hedgehog","null","stimuli\STATE\USED\Spotpan1.JPG","","","","","Memory","false","null","","","",""
"","null","html-keyboard-response","341","2.0.0","517308","pe7o54mbpf0","hedgehog","null","<div style=""font-size:60px; color: black;"">+</div>","","","","","","","","","","",""
"","null","image-keyboard-response","342","2.0.0","519322","pe7o54mbpf0","hedgehog","null","stimuli\EXEMPLAR\USED\Emitt1.jpg","","","","","Memory","false","null","","","",""
"","null","html-keyboard-response","343","2.0.0","519838","pe7o54mbpf0","hedgehog","null","<div style=""font-size:60px; color: black;"">+</div>","","","","","","","","","","",""
"","null","image-keyboard-response","344","2.0.0","521846","pe7o54mbpf0","hedgehog","null","stimuli\EXEMPLAR\USED\Ebrick2.jpg","","","","","Memory","false","null","","","",""
"","null","html-keyboard-response","345","2.0.0","522359","pe7o54mbpf0","hedgehog","null","<div style=""font-size:60px; color: black;"">+</div>","","","","","","","","","","",""
"","null","image-keyboard-response","346","2.0.0","524368","pe7o54mbpf0","hedgehog","null","stimuli\STATE\USED\Sseatbelt2.jpg","","","","","Memory","false","null","","","",""
"","null","html-keyboard-response","347","2.0.0","524880","pe7o54mbpf0","hedgehog","null","<div style=""font-size:60px; color: black;"">+</div>","","","","","","","","","","",""
"","5015","html-keyboard-response","348","2.0.0","529896","pe7o54mbpf0","hedgehog"," ","
          <p>In the next part of this experiment, you will see 2 images. Please select the image that you recall from the image stream.</p>
          <p>You will also rate your confidence for each image you recall.</p>
          <p>Press any key to start.</p>
        ","","","","","","","","","","",""
"","1754","html-button-response","349","2.0.0","531651","pe7o54mbpf0","hedgehog","1","Which of these items did you see before?","","","","","Test","","true","[""stimuli\\EXEMPLAR\\USED\\Eicecream1.jpg"",""stimuli\\EXEMPLAR\\USED\\Eicecream2.jpg""]","stimuli\EXEMPLAR\USED\Eicecream2.jpg","stimuli\EXEMPLAR\USED\Eicecream2.jpg",""
"","2070","image-slider-response","350","2.0.0","533723","pe7o54mbpf0","hedgehog","5","stimuli\EXEMPLAR\USED\Eicecream2.jpg","","","","","","","","","","","3"
"","1367","html-button-response","351","2.0.0","535091","pe7o54mbpf0","hedgehog","0","Which of these items did you see before?","","","","","Test","","true","[""stimuli\\STATE\\USED\\Sbriefcasemetal2.JPG"",""stimuli\\STATE\\USED\\Sbriefcasemetal1.JPG""]","stimuli\STATE\USED\Sbriefcasemetal2.JPG","stimuli\STATE\USED\Sbriefcasemetal2.JPG",""
"","1814","image-slider-response","352","2.0.0","536907","pe7o54mbpf0","hedgehog","5","stimuli\STATE\USED\Sbriefcasemetal2.JPG","","","","","","","","","","","3"
"","1431","html-button-response","353","2.0.0","538339","pe7o54mbpf0","hedgehog","1","Which of these items did you see before?","","","","","Test","","true","[""stimuli\\EXEMPLAR\\USED\\Ebonzai1.jpg"",""stimuli\\EXEMPLAR\\USED\\Ebonzai2.jpg""]","stimuli\EXEMPLAR\USED\Ebonzai2.jpg","stimuli\EXEMPLAR\USED\Ebonzai2.jpg",""
"","2863","image-slider-response","354","2.0.0","541203","pe7o54mbpf0","hedgehog","5","stimuli\EXEMPLAR\USED\Ebonzai2.jpg","","","","","","","","","","","3"
"","831","html-button-response","355","2.0.0","542035","pe7o54mbpf0","hedgehog","1","Which of these items did you see before?","","","","","Test","","true","[""stimuli\\STATE\\USED\\Sapple2.jpg"",""stimuli\\STATE\\USED\\Sapple1.jpg""]","stimuli\STATE\USED\Sapple1.jpg","stimuli\STATE\USED\Sapple1.jpg",""
"","2262","image-slider-response","356","2.0.0","544299","pe7o54mbpf0","hedgehog","5","stimuli\STATE\USED\Sapple1.jpg","","","","","","","","","","","3"
"","1223","html-button-response","357","2.0.0","545523","pe7o54mbpf0","hedgehog","1","Which of these items did you see before?","","","","","Test","","true","[""stimuli\\STATE\\USED\\Seggplant1.jpg"",""stimuli\\STATE\\USED\\Seggplant2.jpg""]","stimuli\STATE\USED\Seggplant2.jpg","stimuli\STATE\USED\Seggplant2.jpg",""
"","1415","image-slider-response","358","2.0.0","546939","pe7o54mbpf0","hedgehog","5","stimuli\STATE\USED\Seggplant2.jpg","","","","","","","","","","","3"
"","879","html-button-response","359","2.0.0","547819","pe7o54mbpf0","hedgehog","0","Which of these items did you see before?","","","","","Test","","true","[""stimuli\\STATE\\USED\\Sdishwasher1.jpg"",""stimuli\\STATE\\USED\\Sdishwasher2.jpg""]","stimuli\STATE\USED\Sdishwasher1.jpg","stimuli\STATE\USED\Sdishwasher1.jpg",""
"","1686","image-slider-response","360","2.0.0","549507","pe7o54mbpf0","hedgehog","5","stimuli\STATE\USED\Sdishwasher1.jpg","","","","","","","","","","","3"
"","3327","html-button-response","361","2.0.0","552835","pe7o54mbpf0","hedgehog","1","Which of these items did you see before?","","","","","Test","","true","[""stimuli\\STATE\\USED\\Saccordion1.jpg"",""stimuli\\STATE\\USED\\Saccordion2.jpg""]","stimuli\STATE\USED\Saccordion2.jpg","stimuli\STATE\USED\Saccordion2.jpg",""
"","2350","image-slider-response","362","2.0.0","555187","pe7o54mbpf0","hedgehog","2","stimuli\STATE\USED\Saccordion2.jpg","","","","","","","","","","","3"
"","1727","html-button-response","363","2.0.0","556915","pe7o54mbpf0","hedgehog","0","Which of these items did you see before?","","","","","Test","","true","[""stimuli\\EXEMPLAR\\USED\\Etrowel2.jpg"",""stimuli\\EXEMPLAR\\USED\\Etrowel1.jpg""]","stimuli\EXEMPLAR\USED\Etrowel2.jpg","stimuli\EXEMPLAR\USED\Etrowel2.jpg",""
"","1799","image-slider-response","364","2.0.0","558715","pe7o54mbpf0","hedgehog","2","stimuli\EXEMPLAR\USED\Etrowel2.jpg","","","","","","","","","","","3"
"","1591","html-button-response","365","2.0.0","560307","pe7o54mbpf0","hedgehog","1","Which of these items did you see before?","","","","","Test","","true","[""stimuli\\EXEMPLAR\\USED\\Epliers1.jpg"",""stimuli\\EXEMPLAR\\USED\\Epliers2.jpg""]","stimuli\EXEMPLAR\USED\Epliers2.jpg","stimuli\EXEMPLAR\USED\Epliers2.jpg",""
"","2262","image-slider-response","366","2.0.0","562571","pe7o54mbpf0","hedgehog","4","stimuli\EXEMPLAR\USED\Epliers2.jpg","","","","","","","","","","","3"
"","1271","html-button-response","367","2.0.0","563843","pe7o54mbpf0","hedgehog","0","Which of these items did you see before?","","","","","Test","","true","[""stimuli\\EXEMPLAR\\USED\\Espraybottle2.jpg"",""stimuli\\EXEMPLAR\\USED\\Espraybottle1.jpg""]","stimuli\EXEMPLAR\USED\Espraybottle2.jpg","stimuli\EXEMPLAR\USED\Espraybottle2.jpg",""
"","2279","image-slider-response","368","2.0.0","566123","pe7o54mbpf0","hedgehog","3","stimuli\EXEMPLAR\USED\Espraybottle2.jpg","","","","","","","","","","","3"
"","2535","html-button-response","369","2.0.0","568659","pe7o54mbpf0","hedgehog","1","Which of these items did you see before?","","","","","Test","","true","[""stimuli\\EXEMPLAR\\USED\\Etoywrench2.jpg"",""stimuli\\EXEMPLAR\\USED\\Etoywrench1.jpg""]","stimuli\EXEMPLAR\USED\Etoywrench1.jpg","stimuli\EXEMPLAR\USED\Etoywrench1.jpg",""
"","2646","image-slider-response","370","2.0.0","571306","pe7o54mbpf0","hedgehog","1","stimuli\EXEMPLAR\USED\Etoywrench1.jpg","","","","","","","","","","","3"
"","1759","html-button-response","371","2.0.0","573067","pe7o54mbpf0","hedgehog","1","Which of these items did you see before?","","","","","Test","","true","[""stimuli\\STATE\\USED\\Srhino2.jpg"",""stimuli\\STATE\\USED\\Srhino1.jpg""]","stimuli\STATE\USED\Srhino1.jpg","stimuli\STATE\USED\Srhino1.jpg",""
"","1518","image-slider-response","372","2.0.0","574587","pe7o54mbpf0","hedgehog","2","stimuli\STATE\USED\Srhino1.jpg","","","","","","","","","","","3"
"","1167","html-button-response","373","2.0.0","575755","pe7o54mbpf0","hedgehog","0","Which of these items did you see before?","","","","","Test","","true","[""stimuli\\STATE\\USED\\Sredcabbage1.jpg"",""stimuli\\STATE\\USED\\Sredcabbage2.jpg""]","stimuli\STATE\USED\Sredcabbage1.jpg","stimuli\STATE\USED\Sredcabbage1.jpg",""
"","2677","image-slider-response","374","2.0.0","578434","pe7o54mbpf0","hedgehog","5","stimuli\STATE\USED\Sredcabbage1.jpg","","","","","","","","","","","3"
"","1896","html-button-response","375","2.0.0","580331","pe7o54mbpf0","hedgehog","0","Which of these items did you see before?","","","","","Test","","true","[""stimuli\\EXEMPLAR\\USED\\Etractor1.jpg"",""stimuli\\EXEMPLAR\\USED\\Etractor2.jpg""]","stimuli\EXEMPLAR\USED\Etractor1.jpg","stimuli\EXEMPLAR\USED\Etractor1.jpg",""
"","1502","image-slider-response","376","2.0.0","581835","pe7o54mbpf0","hedgehog","1","stimuli\EXEMPLAR\USED\Etractor1.jpg","","","","","","","","","","","3"
"","1799","html-button-response","377","2.0.0","583635","pe7o54mbpf0","hedgehog","0","Which of these items did you see before?","","","","","Test","","true","[""stimuli\\EXEMPLAR\\USED\\Escroll1.jpg"",""stimuli\\EXEMPLAR\\USED\\Escroll2.jpg""]","stimuli\EXEMPLAR\USED\Escroll1.jpg","stimuli\EXEMPLAR\USED\Escroll1.jpg",""
"","1543","image-slider-response","378","2.0.0","585179","pe7o54mbpf0","hedgehog","5","stimuli\EXEMPLAR\USED\Escroll1.jpg","","","","","","","","","","","3"
"","919","html-button-response","379","2.0.0","586099","pe7o54mbpf0","hedgehog","1","Which of these items did you see before?","","","","","Test","","true","[""stimuli\\EXEMPLAR\\USED\\Ecalculator1.jpg"",""stimuli\\EXEMPLAR\\USED\\Ecalculator2.jpg""]","stimuli\EXEMPLAR\USED\Ecalculator2.jpg","stimuli\EXEMPLAR\USED\Ecalculator2.jpg",""
"","1254","image-slider-response","380","2.0.0","587355","pe7o54mbpf0","hedgehog","5","stimuli\EXEMPLAR\USED\Ecalculator2.jpg","","","","","","","","","","","3"
"","3224","html-button-response","381","2.0.0","590579","pe7o54mbpf0","hedgehog","1","Which of these items did you see before?","","","","","Test","","true","[""stimuli\\STATE\\USED\\Shairbrush1.jpg"",""stimuli\\STATE\\USED\\Shairbrush2.jpg""]","stimuli\STATE\USED\Shairbrush2.jpg","stimuli\STATE\USED\Shairbrush2.jpg",""
"","1862","image-slider-response","382","2.0.0","592443","pe7o54mbpf0","hedgehog","1","stimuli\STATE\USED\Shairbrush2.jpg","","","","","","","","","","","3"
"","1495","html-button-response","383","2.0.0","593939","pe7o54mbpf0","hedgehog","1","Which of these items did you see before?","","","","","Test","","true","[""stimuli\\EXEMPLAR\\USED\\Eteapot2.JPG"",""stimuli\\EXEMPLAR\\USED\\Eteapot1.JPG""]","stimuli\EXEMPLAR\USED\Eteapot1.JPG","stimuli\EXEMPLAR\USED\Eteapot1.JPG",""
"","1831","image-slider-response","384","2.0.0","595771","pe7o54mbpf0","hedgehog","2","stimuli\EXEMPLAR\USED\Eteapot1.JPG","","","","","","","","","","","3"
"","1215","html-button-response","385","2.0.0","596987","pe7o54mbpf0","hedgehog","0","Which of these items did you see before?","","","","","Test","","true","[""stimuli\\STATE\\USED\\Slaptop1.JPG"",""stimuli\\STATE\\USED\\Slaptop2.JPG""]","stimuli\STATE\USED\Slaptop1.JPG","stimuli\STATE\USED\Slaptop1.JPG",""
"","1326","image-slider-response","386","2.0.0","598315","pe7o54mbpf0","hedgehog","2","stimuli\STATE\USED\Slaptop1.JPG","","","","","","","","","","","3"
"","950","html-button-response","387","2.0.0","599265","pe7o54mbpf0","hedgehog","1","Which of these items did you see before?","","","","","Test","","true","[""stimuli\\STATE\\USED\\Spie2.JPG"",""stimuli\\STATE\\USED\\Spie1.JPG""]","stimuli\STATE\USED\Spie1.JPG","stimuli\STATE\USED\Spie1.JPG",""
"","1568","image-slider-response","388","2.0.0","600835","pe7o54mbpf0","hedgehog","5","stimuli\STATE\USED\Spie1.JPG","","","","","","","","","","","3"
"","959","html-button-response","389","2.0.0","601795","pe7o54mbpf0","hedgehog","0","Which of these items did you see before?","","","","","Test","","false","[""stimuli\\STATE\\USED\\Sbabytoy1.JPG"",""stimuli\\STATE\\USED\\Sbabytoy2.JPG""]","stimuli\STATE\USED\Sbabytoy2.JPG","stimuli\STATE\USED\Sbabytoy1.JPG",""
"","1933","image-slider-response","390","2.0.0","603731","pe7o54mbpf0","hedgehog","2","stimuli\STATE\USED\Sbabytoy1.JPG","","","","","","","","","","","3"
"","1631","html-button-response","391","2.0.0","605364","pe7o54mbpf0","hedgehog","1","Which of these items did you see before?","","","","","Test","","true","[""stimuli\\EXEMPLAR\\USED\\Emuffler1.jpg"",""stimuli\\EXEMPLAR\\USED\\Emuffler2.jpg""]","stimuli\EXEMPLAR\USED\Emuffler2.jpg","stimuli\EXEMPLAR\USED\Emuffler2.jpg",""
"","2022","image-slider-response","392","2.0.0","607387","pe7o54mbpf0","hedgehog","3","stimuli\EXEMPLAR\USED\Emuffler2.jpg","","","","","","","","","","","3"
"","1363","html-button-response","393","2.0.0","608751","pe7o54mbpf0","hedgehog","0","Which of these items did you see before?","","","","","Test","","true","[""stimuli\\EXEMPLAR\\USED\\Ehanger2.jpg"",""stimuli\\EXEMPLAR\\USED\\Ehanger1.jpg""]","stimuli\EXEMPLAR\USED\Ehanger2.jpg","stimuli\EXEMPLAR\USED\Ehanger2.jpg",""
"","1667","image-slider-response","394","2.0.0","610419","pe7o54mbpf0","hedgehog","2","stimuli\EXEMPLAR\USED\Ehanger2.jpg","","","","","","","","","","","3"
"","3261","html-button-response","395","2.0.0","613681","pe7o54mbpf0","hedgehog","0","Which of these items did you see before?","","","","","Test","","true","[""stimuli\\EXEMPLAR\\USED\\Econe1.jpg"",""stimuli\\EXEMPLAR\\USED\\Econe2.jpg""]","stimuli\EXEMPLAR\USED\Econe1.jpg","stimuli\EXEMPLAR\USED\Econe1.jpg",""
"","1441","image-slider-response","396","2.0.0","615123","pe7o54mbpf0","hedgehog","2","stimuli\EXEMPLAR\USED\Econe1.jpg","","","","","","","","","","","3"
"","1479","html-button-response","397","2.0.0","616603","pe7o54mbpf0","hedgehog","1","Which of these items did you see before?","","","","","Test","","false","[""stimuli\\EXEMPLAR\\USED\\Ebread1.jpg"",""stimuli\\EXEMPLAR\\USED\\Ebread2.jpg""]","stimuli\EXEMPLAR\USED\Ebread1.jpg","stimuli\EXEMPLAR\USED\Ebread2.jpg",""
"","1670","image-slider-response","398","2.0.0","618275","pe7o54mbpf0","hedgehog","2","stimuli\EXEMPLAR\USED\Ebread2.jpg","","","","","","","","","","","3"
"","1079","html-button-response","399","2.0.0","619355","pe7o54mbpf0","hedgehog","1","Which of these items did you see before?","","","","","Test","","false","[""stimuli\\STATE\\USED\\Sskull2.jpg"",""stimuli\\STATE\\USED\\Sskull1.jpg""]","stimuli\STATE\USED\Sskull2.jpg","stimuli\STATE\USED\Sskull1.jpg",""
"","1694","image-slider-response","400","2.0.0","621051","pe7o54mbpf0","hedgehog","2","stimuli\STATE\USED\Sskull1.jpg","","","","","","","","","","","3"
"","1991","html-button-response","401","2.0.0","623043","pe7o54mbpf0","hedgehog","1","Which of these items did you see before?","","","","","Test","","true","[""stimuli\\EXEMPLAR\\USED\\Eremote2.jpg"",""stimuli\\EXEMPLAR\\USED\\Eremote1.jpg""]","stimuli\EXEMPLAR\USED\Eremote1.jpg","stimuli\EXEMPLAR\USED\Eremote1.jpg",""
"","1479","image-slider-response","402","2.0.0","624523","pe7o54mbpf0","hedgehog","2","stimuli\EXEMPLAR\USED\Eremote1.jpg","","","","","","","","","","","3"
"","903","html-button-response","403","2.0.0","625427","pe7o54mbpf0","hedgehog","0","Which of these items did you see before?","","","","","Test","","true","[""stimuli\\EXEMPLAR\\USED\\Eglobe1.jpg"",""stimuli\\EXEMPLAR\\USED\\Eglobe2.jpg""]","stimuli\EXEMPLAR\USED\Eglobe1.jpg","stimuli\EXEMPLAR\USED\Eglobe1.jpg",""
"","2519","image-slider-response","404","2.0.0","627947","pe7o54mbpf0","hedgehog","5","stimuli\EXEMPLAR\USED\Eglobe1.jpg","","","","","","","","","","","3"
"","1495","html-button-response","405","2.0.0","629443","pe7o54mbpf0","hedgehog","0","Which of these items did you see before?","","","","","Test","","true","[""stimuli\\EXEMPLAR\\USED\\Erabbit2.jpg"",""stimuli\\EXEMPLAR\\USED\\Erabbit1.jpg""]","stimuli\EXEMPLAR\USED\Erabbit2.jpg","stimuli\EXEMPLAR\USED\Erabbit2.jpg",""
"","2014","image-slider-response","406","2.0.0","631459","pe7o54mbpf0","hedgehog","4","stimuli\EXEMPLAR\USED\Erabbit2.jpg","","","","","","","","","","","3"
"","1751","html-button-response","407","2.0.0","633211","pe7o54mbpf0","hedgehog","1","Which of these items did you see before?","","","","","Test","","true","[""stimuli\\STATE\\USED\\Schinesefoodbox2.jpg"",""stimuli\\STATE\\USED\\Schinesefoodbox1.jpg""]","stimuli\STATE\USED\Schinesefoodbox1.jpg","stimuli\STATE\USED\Schinesefoodbox1.jpg",""
"","1815","image-slider-response","408","2.0.0","635027","pe7o54mbpf0","hedgehog","3","stimuli\STATE\USED\Schinesefoodbox1.jpg","","","","","","","","","","","3"
"","1431","html-button-response","409","2.0.0","636459","pe7o54mbpf0","hedgehog","0","Which of these items did you see before?","","","","","Test","","true","[""stimuli\\EXEMPLAR\\USED\\Eframe2.jpg"",""stimuli\\EXEMPLAR\\USED\\Eframe1.jpg""]","stimuli\EXEMPLAR\USED\Eframe2.jpg","stimuli\EXEMPLAR\USED\Eframe2.jpg",""
"","1694","image-slider-response","410","2.0.0","638155","pe7o54mbpf0","hedgehog","4","stimuli\EXEMPLAR\USED\Eframe2.jpg","","","","","","","","","","","3"
"","1295","html-button-response","411","2.0.0","639451","pe7o54mbpf0","hedgehog","0","Which of these items did you see before?","","","","","Test","","false","[""stimuli\\EXEMPLAR\\USED\\Efolder2.jpg"",""stimuli\\EXEMPLAR\\USED\\Efolder1.jpg""]","stimuli\EXEMPLAR\USED\Efolder1.jpg","stimuli\EXEMPLAR\USED\Efolder2.jpg",""
"","1463","image-slider-response","412","2.0.0","640915","pe7o54mbpf0","hedgehog","2","stimuli\EXEMPLAR\USED\Efolder2.jpg","","","","","","","","","","","3"
"","2860","html-button-response","413","2.0.0","643777","pe7o54mbpf0","hedgehog","0","Which of these items did you see before?","","","","","Test","","false","[""stimuli\\STATE\\USED\\Sgiftbox1.jpg"",""stimuli\\STATE\\USED\\Sgiftbox2.jpg""]","stimuli\STATE\USED\Sgiftbox2.jpg","stimuli\STATE\USED\Sgiftbox1.jpg",""
"","1361","image-slider-response","414","2.0.0","645139","pe7o54mbpf0","hedgehog","2","stimuli\STATE\USED\Sgiftbox1.jpg","","","","","","","","","","","3"
"","2431","html-button-response","415","2.0.0","647571","pe7o54mbpf0","hedgehog","0","Which of these items did you see before?","","","","","Test","","true","[""stimuli\\STATE\\USED\\Sdoughhands2.jpg"",""stimuli\\STATE\\USED\\Sdoughhands1.jpg""]","stimuli\STATE\USED\Sdoughhands2.jpg","stimuli\STATE\USED\Sdoughhands2.jpg",""
"","1126","image-slider-response","416","2.0.0","648698","pe7o54mbpf0","hedgehog","2","stimuli\STATE\USED\Sdoughhands2.jpg","","","","","","","","","","","3"
"","1559","html-button-response","417","2.0.0","650259","pe7o54mbpf0","hedgehog","0","Which of these items did you see before?","","","","","Test","","true","[""stimuli\\STATE\\USED\\Sgiftbag2.jpg"",""stimuli\\STATE\\USED\\Sgiftbag1.jpg""]","stimuli\STATE\USED\Sgiftbag2.jpg","stimuli\STATE\USED\Sgiftbag2.jpg",""
"","1551","image-slider-response","418","2.0.0","651811","pe7o54mbpf0","hedgehog","4","stimuli\STATE\USED\Sgiftbag2.jpg","","","","","","","","","","","3"
"","921","html-button-response","419","2.0.0","652733","pe7o54mbpf0","hedgehog","0","Which of these items did you see before?","","","","","Test","","true","[""stimuli\\EXEMPLAR\\USED\\Echocolatebar2.jpg"",""stimuli\\EXEMPLAR\\USED\\Echocolatebar1.jpg""]","stimuli\EXEMPLAR\USED\Echocolatebar2.jpg","stimuli\EXEMPLAR\USED\Echocolatebar2.jpg",""
"","2034","image-slider-response","420","2.0.0","654769","pe7o54mbpf0","hedgehog","5","stimuli\EXEMPLAR\USED\Echocolatebar2.jpg","","","","","","","","","","","3"
"","1377","html-button-response","421","2.0.0","656147","pe7o54mbpf0","hedgehog","1","Which of these items did you see before?","","","","","Test","","true","[""stimuli\\EXEMPLAR\\USED\\Etongs1.jpg"",""stimuli\\EXEMPLAR\\USED\\Etongs2.jpg""]","stimuli\EXEMPLAR\USED\Etongs2.jpg","stimuli\EXEMPLAR\USED\Etongs2.jpg",""
"","1639","image-slider-response","422","2.0.0","657788","pe7o54mbpf0","hedgehog","5","stimuli\EXEMPLAR\USED\Etongs2.jpg","","","","","","","","","","","3"
"","2046","html-button-response","423","2.0.0","659835","pe7o54mbpf0","hedgehog","0","Which of these items did you see before?","","","","","Test","","true","[""stimuli\\EXEMPLAR\\USED\\Edinosaur2.jpg"",""stimuli\\EXEMPLAR\\USED\\Edinosaur1.jpg""]","stimuli\EXEMPLAR\USED\Edinosaur2.jpg","stimuli\EXEMPLAR\USED\Edinosaur2.jpg",""
"","1431","image-slider-response","424","2.0.0","661267","pe7o54mbpf0","hedgehog","1","stimuli\EXEMPLAR\USED\Edinosaur2.jpg","","","","","","","","","","","3"
"","3055","html-button-response","425","2.0.0","664323","pe7o54mbpf0","hedgehog","1","Which of these items did you see before?","","","","","Test","","true","[""stimuli\\STATE\\USED\\Sjuiceglass2.JPG"",""stimuli\\STATE\\USED\\Sjuiceglass1.JPG""]","stimuli\STATE\USED\Sjuiceglass1.JPG","stimuli\STATE\USED\Sjuiceglass1.JPG",""
"","1782","image-slider-response","426","2.0.0","666107","pe7o54mbpf0","hedgehog","2","stimuli\STATE\USED\Sjuiceglass1.JPG","","","","","","","","","","","3"
"","911","html-button-response","427","2.0.0","667019","pe7o54mbpf0","hedgehog","0","Which of these items did you see before?","","","","","Test","","true","[""stimuli\\STATE\\USED\\Shandshake1.JPG"",""stimuli\\STATE\\USED\\Shandshake2.JPG""]","stimuli\STATE\USED\Shandshake1.JPG","stimuli\STATE\USED\Shandshake1.JPG",""
"","1535","image-slider-response","428","2.0.0","668555","pe7o54mbpf0","hedgehog","5","stimuli\STATE\USED\Shandshake1.JPG","","","","","","","","","","","3"
"","855","html-button-response","429","2.0.0","669411","pe7o54mbpf0","hedgehog","0","Which of these items did you see before?","","","","","Test","","true","[""stimuli\\STATE\\USED\\Sbooks2.JPG"",""stimuli\\STATE\\USED\\Sbooks1.JPG""]","stimuli\STATE\USED\Sbooks2.JPG","stimuli\STATE\USED\Sbooks2.JPG",""
"","1743","image-slider-response","430","2.0.0","671155","pe7o54mbpf0","hedgehog","5","stimuli\STATE\USED\Sbooks2.JPG","","","","","","","","","","","3"
"","831","html-button-response","431","2.0.0","671987","pe7o54mbpf0","hedgehog","0","Which of these items did you see before?","","","","","Test","","true","[""stimuli\\STATE\\USED\\Scoffeemaker1.JPG"",""stimuli\\STATE\\USED\\Scoffeemaker2.JPG""]","stimuli\STATE\USED\Scoffeemaker1.JPG","stimuli\STATE\USED\Scoffeemaker1.JPG",""
"","1319","image-slider-response","432","2.0.0","673307","pe7o54mbpf0","hedgehog","5","stimuli\STATE\USED\Scoffeemaker1.JPG","","","","","","","","","","","3"
"","1408","html-button-response","433","2.0.0","674716","pe7o54mbpf0","hedgehog","0","Which of these items did you see before?","","","","","Test","","true","[""stimuli\\EXEMPLAR\\USED\\Epiano1.jpg"",""stimuli\\EXEMPLAR\\USED\\Epiano2.jpg""]","stimuli\EXEMPLAR\USED\Epiano1.jpg","stimuli\EXEMPLAR\USED\Epiano1.jpg",""
"","2399","image-slider-response","434","2.0.0","677116","pe7o54mbpf0","hedgehog","4","stimuli\EXEMPLAR\USED\Epiano1.jpg","","","","","","","","","","","3"
"","2110","html-button-response","435","2.0.0","679227","pe7o54mbpf0","hedgehog","1","Which of these items did you see before?","","","","","Test","","true","[""stimuli\\STATE\\USED\\Scontainer2.JPG"",""stimuli\\STATE\\USED\\Scontainer1.JPG""]","stimuli\STATE\USED\Scontainer1.JPG","stimuli\STATE\USED\Scontainer1.JPG",""
"","2119","image-slider-response","436","2.0.0","681347","pe7o54mbpf0","hedgehog","1","stimuli\STATE\USED\Scontainer1.JPG","","","","","","","","","","","3"
"","935","html-button-response","437","2.0.0","682283","pe7o54mbpf0","hedgehog","1","Which of these items did you see before?","","","","","Test","","true","[""stimuli\\EXEMPLAR\\USED\\Emuffin2.jpg"",""stimuli\\EXEMPLAR\\USED\\Emuffin1.jpg""]","stimuli\EXEMPLAR\USED\Emuffin1.jpg","stimuli\EXEMPLAR\USED\Emuffin1.jpg",""
"","1863","image-slider-response","438","2.0.0","684147","pe7o54mbpf0","hedgehog","5","stimuli\EXEMPLAR\USED\Emuffin1.jpg","","","","","","","","","","","3"
"","1111","html-button-response","439","2.0.0","685259","pe7o54mbpf0","hedgehog","1","Which of these items did you see before?","","","","","Test","","false","[""stimuli\\STATE\\USED\\Stypewriter1.jpg"",""stimuli\\STATE\\USED\\Stypewriter2.jpg""]","stimuli\STATE\USED\Stypewriter1.jpg","stimuli\STATE\USED\Stypewriter2.jpg",""
"","2214","image-slider-response","440","2.0.0","687475","pe7o54mbpf0","hedgehog","1","stimuli\STATE\USED\Stypewriter2.jpg","","","","","","","","","","","3"
"","919","html-button-response","441","2.0.0","688395","pe7o54mbpf0","hedgehog","1","Which of these items did you see before?","","","","","Test","","true","[""stimuli\\EXEMPLAR\\USED\\Ehelmet2.jpg"",""stimuli\\EXEMPLAR\\USED\\Ehelmet1.jpg""]","stimuli\EXEMPLAR\USED\Ehelmet1.jpg","stimuli\EXEMPLAR\USED\Ehelmet1.jpg",""
"","1374","image-slider-response","442","2.0.0","689771","pe7o54mbpf0","hedgehog","5","stimuli\EXEMPLAR\USED\Ehelmet1.jpg","","","","","","","","","","","3"
"","1503","html-button-response","443","2.0.0","691275","pe7o54mbpf0","hedgehog","0","Which of these items did you see before?","","","","","Test","","true","[""stimuli\\STATE\\USED\\Sclipboard2.jpg"",""stimuli\\STATE\\USED\\Sclipboard1.jpg""]","stimuli\STATE\USED\Sclipboard2.jpg","stimuli\STATE\USED\Sclipboard2.jpg",""
"","1558","image-slider-response","444","2.0.0","692835","pe7o54mbpf0","hedgehog","2","stimuli\STATE\USED\Sclipboard2.jpg","","","","","","","","","","","3"
"","1671","html-button-response","445","2.0.0","694507","pe7o54mbpf0","hedgehog","0","Which of these items did you see before?","","","","","Test","","false","[""stimuli\\EXEMPLAR\\USED\\Ekayak1.jpg"",""stimuli\\EXEMPLAR\\USED\\Ekayak2.jpg""]","stimuli\EXEMPLAR\USED\Ekayak2.jpg","stimuli\EXEMPLAR\USED\Ekayak1.jpg",""
"","1943","image-slider-response","446","2.0.0","696451","pe7o54mbpf0","hedgehog","4","stimuli\EXEMPLAR\USED\Ekayak1.jpg","","","","","","","","","","","3"
"","2183","html-button-response","447","2.0.0","698635","pe7o54mbpf0","hedgehog","0","Which of these items did you see before?","","","","","Test","","true","[""stimuli\\EXEMPLAR\\USED\\Etoyhand2.jpg"",""stimuli\\EXEMPLAR\\USED\\Etoyhand1.jpg""]","stimuli\EXEMPLAR\USED\Etoyhand2.jpg","stimuli\EXEMPLAR\USED\Etoyhand2.jpg",""
"","2271","image-slider-response","448","2.0.0","700907","pe7o54mbpf0","hedgehog","2","stimuli\EXEMPLAR\USED\Etoyhand2.jpg","","","","","","","","","","","3"
"","24755","survey-text","449","2.0.0","725676","pe7o54mbpf0","hedgehog","{""experiment_purpose"":""if we can remember a lot of things"",""Q1"":""some items were just more memorable than others"",""technical_issues"":""no""}","","","","","","","","","","","",""
