"success","rt","trial_type","trial_index","plugin_version","time_elapsed","random_id","participant","response","stimulus","timeout","failed_images","failed_audio","failed_video","trial_phase","repeated","correct","choice_images","correct_image","choice","slider_start"
"true","1730","fullscreen","0","2.0.0","2737","pg0hzpvg3xz","seal","","","","","","","","","","","","",""
"","2405","survey-text","1","2.0.0","5145","pg0hzpvg3xz","seal","{""participant_id"":""seal""}","","","","","","","","","","","",""
"","1006","html-keyboard-response","2","2.0.0","6152","pg0hzpvg3xz","seal"," ","<p>Welcome to the Massive Memory Experiment. Press any key to move on. </p>","","","","","","","","","","",""
"","17861","html-keyboard-response","3","2.0.0","24014","pg0hzpvg3xz","seal"," ","
      <div style='width:900px;margin: auto;'><p>In the first section you will see a stream of images, with fixation crosses in between each image.</p>
      <p>Each image will remain on screen for 2 seconds. Your job is to detect images that you have seen before within the experiment. Whenever you see an image that you have seen previously <b>at any point in the stream of images</b>, press the spacebar.</p>
      <p>We will let you know if you have correctly or falsely clicked the spacebar on an image by changing the color of the fixation cross.</p>
      <p>If you press the spacebar correctly (the image really did appear earlier), the fixation cross will turn green. If you pressed the spacebar incorrectly, the fixation cross will turn red.</p>
      <p>Please watch carefully to detect the images that show up again!</p>
      <p>Press any key to start.</p></div>
    ","","","","","","","","","","",""
"true","","preload","4","2.0.0","25344","pg0hzpvg3xz","seal","","","false","[]","[]","[]","","","","","","",""
"","null","image-keyboard-response","5","2.0.0","27349","pg0hzpvg3xz","seal","null","stimuli\EXEMPLAR\USED\Eteapot1.JPG","","","","","Memory","false","null","","","",""
"","null","html-keyboard-response","6","2.0.0","27850","pg0hzpvg3xz","seal","null","<div style=""font-size:60px; color: black;"">+</div>","","","","","","","","","","",""
"","null","image-keyboard-response","7","2.0.0","29852","pg0hzpvg3xz","seal","null","stimuli\STATE\USED\Stypewriter2.jpg","","","","","Memory","false","null","","","",""
"","null","html-keyboard-response","8","2.0.0","30354","pg0hzpvg3xz","seal","null","<div style=""font-size:60px; color: black;"">+</div>","","","","","","","","","","",""
"","null","image-keyboard-response","9","2.0.0","32357","pg0hzpvg3xz","seal","null","stimuli\STATE\USED\Sumbrella2.jpg","","","","","Memory","false","null","","","",""
"","null","html-keyboard-response","10","2.0.0","32858","pg0hzpvg3xz","seal","null","<div style=""font-size:60px; color: black;"">+</div>","","","","","","","","","","",""
"","null","image-keyboard-response","11","2.0.0","34861","pg0hzpvg3xz","seal","null","stimuli\EXEMPLAR\USED\Etractor2.jpg","","","","","Memory","false","null","","","",""
"","null","html-keyboard-response","12","2.0.0","35363","pg0hzpvg3xz","seal","null","<div style=""font-size:60px; color: black;"">+</div>","","","","","","","","","","",""
"","null","image-keyboard-response","13","2.0.0","37366","pg0hzpvg3xz","seal","null","stimuli\STATE\USED\Spotpan2.JPG","","","","","Memory","false","null","","","",""
"","null","html-keyboard-response","14","2.0.0","37868","pg0hzpvg3xz","seal","null","<div style=""font-size:60px; color: black;"">+</div>","","","","","","","","","","",""
"","null","image-keyboard-response","15","2.0.0","39870","pg0hzpvg3xz","seal","null","stimuli\EXEMPLAR\USED\Escroll2.jpg","","","","","Memory","false","null","","","",""
"","null","html-keyboard-response","16","2.0.0","40373","pg0hzpvg3xz","seal","null","<div style=""font-size:60px; color: black;"">+</div>","","","","","","","","","","",""
"","783","image-keyboard-response","17","2.0.0","42376","pg0hzpvg3xz","seal"," ","stimuli\STATE\USED\Sumbrella2.jpg","","","","","Memory","true","true","","","",""
"","null","html-keyboard-response","18","2.0.0","42878","pg0hzpvg3xz","seal","null","<div style=""font-size:60px; color: green;"">+</div>","","","","","","","","","","",""
"","null","image-keyboard-response","19","2.0.0","44881","pg0hzpvg3xz","seal","null","stimuli\STATE\USED\Shairbrush2.jpg","","","","","Memory","false","null","","","",""
"","null","html-keyboard-response","20","2.0.0","45382","pg0hzpvg3xz","seal","null","<div style=""font-size:60px; color: black;"">+</div>","","","","","","","","","","",""
"","null","image-keyboard-response","21","2.0.0","47384","pg0hzpvg3xz","seal","null","stimuli\EXEMPLAR\USED\Erazor2.jpg","","","","","Memory","false","null","","","",""
"","null","html-keyboard-response","22","2.0.0","47887","pg0hzpvg3xz","seal","null","<div style=""font-size:60px; color: black;"">+</div>","","","","","","","","","","",""
"","null","image-keyboard-response","23","2.0.0","49890","pg0hzpvg3xz","seal","null","stimuli\STATE\USED\Srhino1.jpg","","","","","Memory","false","null","","","",""
"","null","html-keyboard-response","24","2.0.0","50392","pg0hzpvg3xz","seal","null","<div style=""font-size:60px; color: black;"">+</div>","","","","","","","","","","",""
"","null","image-keyboard-response","25","2.0.0","52395","pg0hzpvg3xz","seal","null","stimuli\EXEMPLAR\USED\Ebell2.jpg","","","","","Memory","false","null","","","",""
"","null","html-keyboard-response","26","2.0.0","52897","pg0hzpvg3xz","seal","null","<div style=""font-size:60px; color: black;"">+</div>","","","","","","","","","","",""
"","null","image-keyboard-response","27","2.0.0","54901","pg0hzpvg3xz","seal","null","stimuli\STATE\USED\Spadlock2.jpg","","","","","Memory","false","null","","","",""
"","null","html-keyboard-response","28","2.0.0","55402","pg0hzpvg3xz","seal","null","<div style=""font-size:60px; color: black;"">+</div>","","","","","","","","","","",""
"","null","image-keyboard-response","29","2.0.0","57405","pg0hzpvg3xz","seal","null","stimuli\EXEMPLAR\USED\Emedal2.jpg","","","","","Memory","false","null","","","",""
"","null","html-keyboard-response","30","2.0.0","57907","pg0hzpvg3xz","seal","null","<div style=""font-size:60px; color: black;"">+</div>","","","","","","","","","","",""
"","677","image-keyboard-response","31","2.0.0","59909","pg0hzpvg3xz","seal"," ","stimuli\STATE\USED\Srhino1.jpg","","","","","Memory","true","true","","","",""
"","null","html-keyboard-response","32","2.0.0","60410","pg0hzpvg3xz","seal","null","<div style=""font-size:60px; color: green;"">+</div>","","","","","","","","","","",""
"","null","image-keyboard-response","33","2.0.0","62412","pg0hzpvg3xz","seal","null","stimuli\EXEMPLAR\USED\Ebunny2.jpg","","","","","Memory","false","null","","","",""
"","null","html-keyboard-response","34","2.0.0","62915","pg0hzpvg3xz","seal","null","<div style=""font-size:60px; color: black;"">+</div>","","","","","","","","","","",""
"","null","image-keyboard-response","35","2.0.0","64918","pg0hzpvg3xz","seal","null","stimuli\EXEMPLAR\USED\Ewineglass1.jpg","","","","","Memory","false","null","","","",""
"","null","html-keyboard-response","36","2.0.0","65420","pg0hzpvg3xz","seal","null","<div style=""font-size:60px; color: black;"">+</div>","","","","","","","","","","",""
"","null","image-keyboard-response","37","2.0.0","67423","pg0hzpvg3xz","seal","null","stimuli\STATE\USED\Spiggybank2.jpg","","","","","Memory","false","null","","","",""
"","null","html-keyboard-response","38","2.0.0","67924","pg0hzpvg3xz","seal","null","<div style=""font-size:60px; color: black;"">+</div>","","","","","","","","","","",""
"","null","image-keyboard-response","39","2.0.0","69927","pg0hzpvg3xz","seal","null","stimuli\STATE\USED\Sboxwhite1.jpg","","","","","Memory","false","null","","","",""
"","null","html-keyboard-response","40","2.0.0","70429","pg0hzpvg3xz","seal","null","<div style=""font-size:60px; color: black;"">+</div>","","","","","","","","","","",""
"","null","image-keyboard-response","41","2.0.0","72431","pg0hzpvg3xz","seal","null","stimuli\STATE\USED\Sgiftbox1.jpg","","","","","Memory","false","null","","","",""
"","null","html-keyboard-response","42","2.0.0","72933","pg0hzpvg3xz","seal","null","<div style=""font-size:60px; color: black;"">+</div>","","","","","","","","","","",""
"","null","image-keyboard-response","43","2.0.0","74935","pg0hzpvg3xz","seal","null","stimuli\STATE\USED\Seggplant2.jpg","","","","","Memory","false","null","","","",""
"","null","html-keyboard-response","44","2.0.0","75436","pg0hzpvg3xz","seal","null","<div style=""font-size:60px; color: black;"">+</div>","","","","","","","","","","",""
"","null","image-keyboard-response","45","2.0.0","77438","pg0hzpvg3xz","seal","null","stimuli\EXEMPLAR\USED\Egame2.jpg","","","","","Memory","false","null","","","",""
"","null","html-keyboard-response","46","2.0.0","77941","pg0hzpvg3xz","seal","null","<div style=""font-size:60px; color: black;"">+</div>","","","","","","","","","","",""
"","null","image-keyboard-response","47","2.0.0","79944","pg0hzpvg3xz","seal","null","stimuli\STATE\USED\Sboxwhite1.jpg","","","","","Memory","true","null","","","",""
"","null","html-keyboard-response","48","2.0.0","80445","pg0hzpvg3xz","seal","null","<div style=""font-size:60px; color: black;"">+</div>","","","","","","","","","","",""
"","null","image-keyboard-response","49","2.0.0","82449","pg0hzpvg3xz","seal","null","stimuli\EXEMPLAR\USED\Eremote1.jpg","","","","","Memory","false","null","","","",""
"","null","html-keyboard-response","50","2.0.0","82950","pg0hzpvg3xz","seal","null","<div style=""font-size:60px; color: black;"">+</div>","","","","","","","","","","",""
"","null","image-keyboard-response","51","2.0.0","84952","pg0hzpvg3xz","seal","null","stimuli\STATE\USED\Sbureau2.JPG","","","","","Memory","false","null","","","",""
"","null","html-keyboard-response","52","2.0.0","85454","pg0hzpvg3xz","seal","null","<div style=""font-size:60px; color: black;"">+</div>","","","","","","","","","","",""
"","null","image-keyboard-response","53","2.0.0","87456","pg0hzpvg3xz","seal","null","stimuli\EXEMPLAR\USED\Eglobe2.jpg","","","","","Memory","false","null","","","",""
"","null","html-keyboard-response","54","2.0.0","87957","pg0hzpvg3xz","seal","null","<div style=""font-size:60px; color: black;"">+</div>","","","","","","","","","","",""
"","null","image-keyboard-response","55","2.0.0","89960","pg0hzpvg3xz","seal","null","stimuli\EXEMPLAR\USED\Etrain1.jpg","","","","","Memory","false","null","","","",""
"","null","html-keyboard-response","56","2.0.0","90462","pg0hzpvg3xz","seal","null","<div style=""font-size:60px; color: black;"">+</div>","","","","","","","","","","",""
"","null","image-keyboard-response","57","2.0.0","92464","pg0hzpvg3xz","seal","null","stimuli\STATE\USED\Spatiotable2.jpg","","","","","Memory","false","null","","","",""
"","null","html-keyboard-response","58","2.0.0","92967","pg0hzpvg3xz","seal","null","<div style=""font-size:60px; color: black;"">+</div>","","","","","","","","","","",""
"","null","image-keyboard-response","59","2.0.0","94970","pg0hzpvg3xz","seal","null","stimuli\EXEMPLAR\USED\Eturtle2.jpg","","","","","Memory","false","null","","","",""
"","null","html-keyboard-response","60","2.0.0","95472","pg0hzpvg3xz","seal","null","<div style=""font-size:60px; color: black;"">+</div>","","","","","","","","","","",""
"","651","image-keyboard-response","61","2.0.0","97475","pg0hzpvg3xz","seal"," ","stimuli\EXEMPLAR\USED\Eglobe2.jpg","","","","","Memory","true","true","","","",""
"","null","html-keyboard-response","62","2.0.0","97977","pg0hzpvg3xz","seal","null","<div style=""font-size:60px; color: green;"">+</div>","","","","","","","","","","",""
"","null","image-keyboard-response","63","2.0.0","99980","pg0hzpvg3xz","seal","null","stimuli\EXEMPLAR\USED\Echocolatebar1.jpg","","","","","Memory","false","null","","","",""
"","null","html-keyboard-response","64","2.0.0","100482","pg0hzpvg3xz","seal","null","<div style=""font-size:60px; color: black;"">+</div>","","","","","","","","","","",""
"","null","image-keyboard-response","65","2.0.0","102484","pg0hzpvg3xz","seal","null","stimuli\STATE\USED\Sbox2.jpg","","","","","Memory","false","null","","","",""
"","null","html-keyboard-response","66","2.0.0","102987","pg0hzpvg3xz","seal","null","<div style=""font-size:60px; color: black;"">+</div>","","","","","","","","","","",""
"","null","image-keyboard-response","67","2.0.0","104989","pg0hzpvg3xz","seal","null","stimuli\EXEMPLAR\USED\Ebracelet1.jpg","","","","","Memory","false","null","","","",""
"","null","html-keyboard-response","68","2.0.0","105491","pg0hzpvg3xz","seal","null","<div style=""font-size:60px; color: black;"">+</div>","","","","","","","","","","",""
"","null","image-keyboard-response","69","2.0.0","107494","pg0hzpvg3xz","seal","null","stimuli\EXEMPLAR\USED\Ehorn2.jpg","","","","","Memory","false","null","","","",""
"","null","html-keyboard-response","70","2.0.0","107997","pg0hzpvg3xz","seal","null","<div style=""font-size:60px; color: black;"">+</div>","","","","","","","","","","",""
"","null","image-keyboard-response","71","2.0.0","110000","pg0hzpvg3xz","seal","null","stimuli\STATE\USED\Sdishes1.JPG","","","","","Memory","false","null","","","",""
"","null","html-keyboard-response","72","2.0.0","110502","pg0hzpvg3xz","seal","null","<div style=""font-size:60px; color: black;"">+</div>","","","","","","","","","","",""
"","null","image-keyboard-response","73","2.0.0","112505","pg0hzpvg3xz","seal","null","stimuli\STATE\USED\Snapkins1.jpg","","","","","Memory","false","null","","","",""
"","null","html-keyboard-response","74","2.0.0","113006","pg0hzpvg3xz","seal","null","<div style=""font-size:60px; color: black;"">+</div>","","","","","","","","","","",""
"","null","image-keyboard-response","75","2.0.0","115009","pg0hzpvg3xz","seal","null","stimuli\STATE\USED\Spie1.JPG","","","","","Memory","false","null","","","",""
"","null","html-keyboard-response","76","2.0.0","115511","pg0hzpvg3xz","seal","null","<div style=""font-size:60px; color: black;"">+</div>","","","","","","","","","","",""
"","null","image-keyboard-response","77","2.0.0","117514","pg0hzpvg3xz","seal","null","stimuli\STATE\USED\Sapplesgreenbasket2.jpg","","","","","Memory","false","null","","","",""
"","null","html-keyboard-response","78","2.0.0","118017","pg0hzpvg3xz","seal","null","<div style=""font-size:60px; color: black;"">+</div>","","","","","","","","","","",""
"","null","image-keyboard-response","79","2.0.0","120019","pg0hzpvg3xz","seal","null","stimuli\STATE\USED\Sscales2.jpg","","","","","Memory","false","null","","","",""
"","null","html-keyboard-response","80","2.0.0","120522","pg0hzpvg3xz","seal","null","<div style=""font-size:60px; color: black;"">+</div>","","","","","","","","","","",""
"","null","image-keyboard-response","81","2.0.0","122524","pg0hzpvg3xz","seal","null","stimuli\STATE\USED\Sscissors1.JPG","","","","","Memory","false","null","","","",""
"","null","html-keyboard-response","82","2.0.0","123026","pg0hzpvg3xz","seal","null","<div style=""font-size:60px; color: black;"">+</div>","","","","","","","","","","",""
"","null","image-keyboard-response","83","2.0.0","125030","pg0hzpvg3xz","seal","null","stimuli\EXEMPLAR\USED\Emuffin2.jpg","","","","","Memory","false","null","","","",""
"","null","html-keyboard-response","84","2.0.0","125532","pg0hzpvg3xz","seal","null","<div style=""font-size:60px; color: black;"">+</div>","","","","","","","","","","",""
"","834","image-keyboard-response","85","2.0.0","127535","pg0hzpvg3xz","seal"," ","stimuli\STATE\USED\Sapplesgreenbasket2.jpg","","","","","Memory","true","true","","","",""
"","null","html-keyboard-response","86","2.0.0","128037","pg0hzpvg3xz","seal","null","<div style=""font-size:60px; color: green;"">+</div>","","","","","","","","","","",""
"","null","image-keyboard-response","87","2.0.0","130040","pg0hzpvg3xz","seal","null","stimuli\STATE\USED\Slaptop1.JPG","","","","","Memory","false","null","","","",""
"","null","html-keyboard-response","88","2.0.0","130542","pg0hzpvg3xz","seal","null","<div style=""font-size:60px; color: black;"">+</div>","","","","","","","","","","",""
"","null","image-keyboard-response","89","2.0.0","132546","pg0hzpvg3xz","seal","null","stimuli\EXEMPLAR\USED\Eicecream2.jpg","","","","","Memory","false","null","","","",""
"","null","html-keyboard-response","90","2.0.0","133047","pg0hzpvg3xz","seal","null","<div style=""font-size:60px; color: black;"">+</div>","","","","","","","","","","",""
"","null","image-keyboard-response","91","2.0.0","135049","pg0hzpvg3xz","seal","null","stimuli\EXEMPLAR\USED\Etoyplane2.jpg","","","","","Memory","false","null","","","",""
"","null","html-keyboard-response","92","2.0.0","135551","pg0hzpvg3xz","seal","null","<div style=""font-size:60px; color: black;"">+</div>","","","","","","","","","","",""
"","null","image-keyboard-response","93","2.0.0","137553","pg0hzpvg3xz","seal","null","stimuli\EXEMPLAR\USED\Eguitar2.jpg","","","","","Memory","false","null","","","",""
"","null","html-keyboard-response","94","2.0.0","138055","pg0hzpvg3xz","seal","null","<div style=""font-size:60px; color: black;"">+</div>","","","","","","","","","","",""
"","null","image-keyboard-response","95","2.0.0","140058","pg0hzpvg3xz","seal","null","stimuli\STATE\USED\Sdoughhands2.jpg","","","","","Memory","false","null","","","",""
"","null","html-keyboard-response","96","2.0.0","140560","pg0hzpvg3xz","seal","null","<div style=""font-size:60px; color: black;"">+</div>","","","","","","","","","","",""
"","null","image-keyboard-response","97","2.0.0","142563","pg0hzpvg3xz","seal","null","stimuli\EXEMPLAR\USED\Ebinoculars2.jpg","","","","","Memory","false","null","","","",""
"","null","html-keyboard-response","98","2.0.0","143065","pg0hzpvg3xz","seal","null","<div style=""font-size:60px; color: black;"">+</div>","","","","","","","","","","",""
"","null","image-keyboard-response","99","2.0.0","145068","pg0hzpvg3xz","seal","null","stimuli\STATE\USED\Sbooks2.JPG","","","","","Memory","false","null","","","",""
"","null","html-keyboard-response","100","2.0.0","145569","pg0hzpvg3xz","seal","null","<div style=""font-size:60px; color: black;"">+</div>","","","","","","","","","","",""
"","676","image-keyboard-response","101","2.0.0","147571","pg0hzpvg3xz","seal"," ","stimuli\EXEMPLAR\USED\Eguitar2.jpg","","","","","Memory","true","true","","","",""
"","null","html-keyboard-response","102","2.0.0","148074","pg0hzpvg3xz","seal","null","<div style=""font-size:60px; color: green;"">+</div>","","","","","","","","","","",""
"","null","image-keyboard-response","103","2.0.0","150077","pg0hzpvg3xz","seal","null","stimuli\EXEMPLAR\USED\Epiano2.jpg","","","","","Memory","false","null","","","",""
"","null","html-keyboard-response","104","2.0.0","150579","pg0hzpvg3xz","seal","null","<div style=""font-size:60px; color: black;"">+</div>","","","","","","","","","","",""
"","null","image-keyboard-response","105","2.0.0","152582","pg0hzpvg3xz","seal","null","stimuli\EXEMPLAR\USED\Etongs2.jpg","","","","","Memory","false","null","","","",""
"","null","html-keyboard-response","106","2.0.0","153085","pg0hzpvg3xz","seal","null","<div style=""font-size:60px; color: black;"">+</div>","","","","","","","","","","",""
"","1507","html-button-response","107","2.0.0","154594","pg0hzpvg3xz","seal","0","Are you still there?","","","","","Attention Check","","","","","",""
"","null","image-keyboard-response","108","2.0.0","156597","pg0hzpvg3xz","seal","null","stimuli\STATE\USED\Smetronome2.JPG","","","","","Memory","false","null","","","",""
"","null","html-keyboard-response","109","2.0.0","157099","pg0hzpvg3xz","seal","null","<div style=""font-size:60px; color: black;"">+</div>","","","","","","","","","","",""
"","null","image-keyboard-response","110","2.0.0","159102","pg0hzpvg3xz","seal","null","stimuli\EXEMPLAR\USED\Econe2.jpg","","","","","Memory","false","null","","","",""
"","null","html-keyboard-response","111","2.0.0","159603","pg0hzpvg3xz","seal","null","<div style=""font-size:60px; color: black;"">+</div>","","","","","","","","","","",""
"","710","image-keyboard-response","112","2.0.0","161606","pg0hzpvg3xz","seal"," ","stimuli\EXEMPLAR\USED\Epiano2.jpg","","","","","Memory","true","true","","","",""
"","null","html-keyboard-response","113","2.0.0","162108","pg0hzpvg3xz","seal","null","<div style=""font-size:60px; color: green;"">+</div>","","","","","","","","","","",""
"","null","image-keyboard-response","114","2.0.0","164111","pg0hzpvg3xz","seal","null","stimuli\EXEMPLAR\USED\Esantahat2.jpg","","","","","Memory","false","null","","","",""
"","null","html-keyboard-response","115","2.0.0","164612","pg0hzpvg3xz","seal","null","<div style=""font-size:60px; color: black;"">+</div>","","","","","","","","","","",""
"","null","image-keyboard-response","116","2.0.0","166614","pg0hzpvg3xz","seal","null","stimuli\EXEMPLAR\USED\Etoywrench1.jpg","","","","","Memory","false","null","","","",""
"","null","html-keyboard-response","117","2.0.0","167116","pg0hzpvg3xz","seal","null","<div style=""font-size:60px; color: black;"">+</div>","","","","","","","","","","",""
"","null","image-keyboard-response","118","2.0.0","169119","pg0hzpvg3xz","seal","null","stimuli\EXEMPLAR\USED\Eballoon2.jpg","","","","","Memory","false","null","","","",""
"","null","html-keyboard-response","119","2.0.0","169621","pg0hzpvg3xz","seal","null","<div style=""font-size:60px; color: black;"">+</div>","","","","","","","","","","",""
"","null","image-keyboard-response","120","2.0.0","171623","pg0hzpvg3xz","seal","null","stimuli\EXEMPLAR\USED\Estarfish1.jpg","","","","","Memory","false","null","","","",""
"","null","html-keyboard-response","121","2.0.0","172125","pg0hzpvg3xz","seal","null","<div style=""font-size:60px; color: black;"">+</div>","","","","","","","","","","",""
"","null","image-keyboard-response","122","2.0.0","174128","pg0hzpvg3xz","seal","null","stimuli\STATE\USED\Sdishwasher2.jpg","","","","","Memory","false","null","","","",""
"","null","html-keyboard-response","123","2.0.0","174629","pg0hzpvg3xz","seal","null","<div style=""font-size:60px; color: black;"">+</div>","","","","","","","","","","",""
"","686","image-keyboard-response","124","2.0.0","176632","pg0hzpvg3xz","seal"," ","stimuli\EXEMPLAR\USED\Etoywrench1.jpg","","","","","Memory","true","true","","","",""
"","null","html-keyboard-response","125","2.0.0","177134","pg0hzpvg3xz","seal","null","<div style=""font-size:60px; color: green;"">+</div>","","","","","","","","","","",""
"","null","image-keyboard-response","126","2.0.0","179137","pg0hzpvg3xz","seal","null","stimuli\STATE\USED\Sclipboard2.jpg","","","","","Memory","false","null","","","",""
"","null","html-keyboard-response","127","2.0.0","179639","pg0hzpvg3xz","seal","null","<div style=""font-size:60px; color: black;"">+</div>","","","","","","","","","","",""
"","null","image-keyboard-response","128","2.0.0","181641","pg0hzpvg3xz","seal","null","stimuli\EXEMPLAR\USED\Ebonzai2.jpg","","","","","Memory","false","null","","","",""
"","null","html-keyboard-response","129","2.0.0","182143","pg0hzpvg3xz","seal","null","<div style=""font-size:60px; color: black;"">+</div>","","","","","","","","","","",""
"","null","image-keyboard-response","130","2.0.0","184145","pg0hzpvg3xz","seal","null","stimuli\STATE\USED\Stiger2.jpg","","","","","Memory","false","null","","","",""
"","null","html-keyboard-response","131","2.0.0","184647","pg0hzpvg3xz","seal","null","<div style=""font-size:60px; color: black;"">+</div>","","","","","","","","","","",""
"","null","image-keyboard-response","132","2.0.0","186648","pg0hzpvg3xz","seal","null","stimuli\STATE\USED\Sseats2.jpg","","","","","Memory","false","null","","","",""
"","null","html-keyboard-response","133","2.0.0","187149","pg0hzpvg3xz","seal","null","<div style=""font-size:60px; color: black;"">+</div>","","","","","","","","","","",""
"","null","image-keyboard-response","134","2.0.0","189152","pg0hzpvg3xz","seal","null","stimuli\EXEMPLAR\USED\Edinosaur2.jpg","","","","","Memory","false","null","","","",""
"","null","html-keyboard-response","135","2.0.0","189654","pg0hzpvg3xz","seal","null","<div style=""font-size:60px; color: black;"">+</div>","","","","","","","","","","",""
"","null","image-keyboard-response","136","2.0.0","191657","pg0hzpvg3xz","seal","null","stimuli\STATE\USED\Saccordionsmall2.JPG","","","","","Memory","false","null","","","",""
"","null","html-keyboard-response","137","2.0.0","192159","pg0hzpvg3xz","seal","null","<div style=""font-size:60px; color: black;"">+</div>","","","","","","","","","","",""
"","null","image-keyboard-response","138","2.0.0","194162","pg0hzpvg3xz","seal","null","stimuli\STATE\USED\Stiger2.jpg","","","","","Memory","true","null","","","",""
"","null","html-keyboard-response","139","2.0.0","194664","pg0hzpvg3xz","seal","null","<div style=""font-size:60px; color: black;"">+</div>","","","","","","","","","","",""
"","null","image-keyboard-response","140","2.0.0","196667","pg0hzpvg3xz","seal","null","stimuli\STATE\USED\Sbreadslice1.jpg","","","","","Memory","false","null","","","",""
"","null","html-keyboard-response","141","2.0.0","197169","pg0hzpvg3xz","seal","null","<div style=""font-size:60px; color: black;"">+</div>","","","","","","","","","","",""
"","null","image-keyboard-response","142","2.0.0","199172","pg0hzpvg3xz","seal","null","stimuli\STATE\USED\Sskull1.jpg","","","","","Memory","false","null","","","",""
"","null","html-keyboard-response","143","2.0.0","199674","pg0hzpvg3xz","seal","null","<div style=""font-size:60px; color: black;"">+</div>","","","","","","","","","","",""
"","null","image-keyboard-response","144","2.0.0","201676","pg0hzpvg3xz","seal","null","stimuli\STATE\USED\Speppers1.jpg","","","","","Memory","false","null","","","",""
"","null","html-keyboard-response","145","2.0.0","202178","pg0hzpvg3xz","seal","null","<div style=""font-size:60px; color: black;"">+</div>","","","","","","","","","","",""
"","null","image-keyboard-response","146","2.0.0","204180","pg0hzpvg3xz","seal","null","stimuli\EXEMPLAR\USED\Esuitcase2.jpg","","","","","Memory","false","null","","","",""
"","null","html-keyboard-response","147","2.0.0","204682","pg0hzpvg3xz","seal","null","<div style=""font-size:60px; color: black;"">+</div>","","","","","","","","","","",""
"","659","image-keyboard-response","148","2.0.0","206685","pg0hzpvg3xz","seal"," ","stimuli\STATE\USED\Sbreadslice1.jpg","","","","","Memory","true","true","","","",""
"","null","html-keyboard-response","149","2.0.0","207187","pg0hzpvg3xz","seal","null","<div style=""font-size:60px; color: green;"">+</div>","","","","","","","","","","",""
"","null","image-keyboard-response","150","2.0.0","209189","pg0hzpvg3xz","seal","null","stimuli\STATE\USED\Shandsign1.JPG","","","","","Memory","false","null","","","",""
"","null","html-keyboard-response","151","2.0.0","209691","pg0hzpvg3xz","seal","null","<div style=""font-size:60px; color: black;"">+</div>","","","","","","","","","","",""
"","null","image-keyboard-response","152","2.0.0","211694","pg0hzpvg3xz","seal","null","stimuli\STATE\USED\Shandmirror1.jpg","","","","","Memory","false","null","","","",""
"","null","html-keyboard-response","153","2.0.0","212196","pg0hzpvg3xz","seal","null","<div style=""font-size:60px; color: black;"">+</div>","","","","","","","","","","",""
"","null","image-keyboard-response","154","2.0.0","214198","pg0hzpvg3xz","seal","null","stimuli\STATE\USED\Sdrum1.jpg","","","","","Memory","false","null","","","",""
"","null","html-keyboard-response","155","2.0.0","214699","pg0hzpvg3xz","seal","null","<div style=""font-size:60px; color: black;"">+</div>","","","","","","","","","","",""
"","null","image-keyboard-response","156","2.0.0","216702","pg0hzpvg3xz","seal","null","stimuli\EXEMPLAR\USED\Ebrick2.jpg","","","","","Memory","false","null","","","",""
"","null","html-keyboard-response","157","2.0.0","217205","pg0hzpvg3xz","seal","null","<div style=""font-size:60px; color: black;"">+</div>","","","","","","","","","","",""
"","null","image-keyboard-response","158","2.0.0","219208","pg0hzpvg3xz","seal","null","stimuli\EXEMPLAR\USED\Eladder1.jpg","","","","","Memory","false","null","","","",""
"","null","html-keyboard-response","159","2.0.0","219709","pg0hzpvg3xz","seal","null","<div style=""font-size:60px; color: black;"">+</div>","","","","","","","","","","",""
"","null","image-keyboard-response","160","2.0.0","221711","pg0hzpvg3xz","seal","null","stimuli\EXEMPLAR\USED\Ecake1.jpg","","","","","Memory","false","null","","","",""
"","null","html-keyboard-response","161","2.0.0","222213","pg0hzpvg3xz","seal","null","<div style=""font-size:60px; color: black;"">+</div>","","","","","","","","","","",""
"","null","image-keyboard-response","162","2.0.0","224216","pg0hzpvg3xz","seal","null","stimuli\EXEMPLAR\USED\Ehelmet2.jpg","","","","","Memory","false","null","","","",""
"","null","html-keyboard-response","163","2.0.0","224718","pg0hzpvg3xz","seal","null","<div style=""font-size:60px; color: black;"">+</div>","","","","","","","","","","",""
"","1095","image-keyboard-response","164","2.0.0","226721","pg0hzpvg3xz","seal"," ","stimuli\EXEMPLAR\USED\Ebrick2.jpg","","","","","Memory","true","true","","","",""
"","null","html-keyboard-response","165","2.0.0","227223","pg0hzpvg3xz","seal","null","<div style=""font-size:60px; color: green;"">+</div>","","","","","","","","","","",""
"","null","image-keyboard-response","166","2.0.0","229226","pg0hzpvg3xz","seal","null","stimuli\STATE\USED\Spestle1.jpg","","","","","Memory","false","null","","","",""
"","null","html-keyboard-response","167","2.0.0","229729","pg0hzpvg3xz","seal","null","<div style=""font-size:60px; color: black;"">+</div>","","","","","","","","","","",""
"","null","image-keyboard-response","168","2.0.0","231731","pg0hzpvg3xz","seal","null","stimuli\EXEMPLAR\USED\Ewheelchair2.jpg","","","","","Memory","false","null","","","",""
"","null","html-keyboard-response","169","2.0.0","232233","pg0hzpvg3xz","seal","null","<div style=""font-size:60px; color: black;"">+</div>","","","","","","","","","","",""
"","null","image-keyboard-response","170","2.0.0","234235","pg0hzpvg3xz","seal","null","stimuli\EXEMPLAR\USED\Ekayak2.jpg","","","","","Memory","false","null","","","",""
"","null","html-keyboard-response","171","2.0.0","234738","pg0hzpvg3xz","seal","null","<div style=""font-size:60px; color: black;"">+</div>","","","","","","","","","","",""
"","null","image-keyboard-response","172","2.0.0","236741","pg0hzpvg3xz","seal","null","stimuli\EXEMPLAR\USED\Esunglasses2.jpg","","","","","Memory","false","null","","","",""
"","null","html-keyboard-response","173","2.0.0","237242","pg0hzpvg3xz","seal","null","<div style=""font-size:60px; color: black;"">+</div>","","","","","","","","","","",""
"","null","image-keyboard-response","174","2.0.0","239244","pg0hzpvg3xz","seal","null","stimuli\STATE\USED\Spestle1.jpg","","","","","Memory","true","null","","","",""
"","null","html-keyboard-response","175","2.0.0","239747","pg0hzpvg3xz","seal","null","<div style=""font-size:60px; color: black;"">+</div>","","","","","","","","","","",""
"","null","image-keyboard-response","176","2.0.0","241749","pg0hzpvg3xz","seal","null","stimuli\STATE\USED\Sbook1.JPG","","","","","Memory","false","null","","","",""
"","null","html-keyboard-response","177","2.0.0","242251","pg0hzpvg3xz","seal","null","<div style=""font-size:60px; color: black;"">+</div>","","","","","","","","","","",""
"","null","image-keyboard-response","178","2.0.0","244254","pg0hzpvg3xz","seal","null","stimuli\EXEMPLAR\USED\Eframe1.jpg","","","","","Memory","false","null","","","",""
"","null","html-keyboard-response","179","2.0.0","244757","pg0hzpvg3xz","seal","null","<div style=""font-size:60px; color: black;"">+</div>","","","","","","","","","","",""
"","null","image-keyboard-response","180","2.0.0","246760","pg0hzpvg3xz","seal","null","stimuli\STATE\USED\Sapple1.jpg","","","","","Memory","false","null","","","",""
"","null","html-keyboard-response","181","2.0.0","247262","pg0hzpvg3xz","seal","null","<div style=""font-size:60px; color: black;"">+</div>","","","","","","","","","","",""
"","null","image-keyboard-response","182","2.0.0","249265","pg0hzpvg3xz","seal","null","stimuli\STATE\USED\Sbrie2.JPG","","","","","Memory","false","null","","","",""
"","null","html-keyboard-response","183","2.0.0","249767","pg0hzpvg3xz","seal","null","<div style=""font-size:60px; color: black;"">+</div>","","","","","","","","","","",""
"","null","image-keyboard-response","184","2.0.0","251777","pg0hzpvg3xz","seal","null","stimuli\STATE\USED\Saccordion2.jpg","","","","","Memory","false","null","","","",""
"","null","html-keyboard-response","185","2.0.0","252280","pg0hzpvg3xz","seal","null","<div style=""font-size:60px; color: black;"">+</div>","","","","","","","","","","",""
"","null","image-keyboard-response","186","2.0.0","254282","pg0hzpvg3xz","seal","null","stimuli\EXEMPLAR\USED\Efishbowl2.jpg","","","","","Memory","false","null","","","",""
"","null","html-keyboard-response","187","2.0.0","254784","pg0hzpvg3xz","seal","null","<div style=""font-size:60px; color: black;"">+</div>","","","","","","","","","","",""
"","null","image-keyboard-response","188","2.0.0","256786","pg0hzpvg3xz","seal","null","stimuli\EXEMPLAR\USED\Eswimsuit1.jpg","","","","","Memory","false","null","","","",""
"","null","html-keyboard-response","189","2.0.0","257288","pg0hzpvg3xz","seal","null","<div style=""font-size:60px; color: black;"">+</div>","","","","","","","","","","",""
"","null","image-keyboard-response","190","2.0.0","259291","pg0hzpvg3xz","seal","null","stimuli\STATE\USED\Sgrinder2.jpg","","","","","Memory","false","null","","","",""
"","null","html-keyboard-response","191","2.0.0","259792","pg0hzpvg3xz","seal","null","<div style=""font-size:60px; color: black;"">+</div>","","","","","","","","","","",""
"","null","image-keyboard-response","192","2.0.0","261794","pg0hzpvg3xz","seal","null","stimuli\STATE\USED\Sbarnmailbox1.jpg","","","","","Memory","false","null","","","",""
"","null","html-keyboard-response","193","2.0.0","262296","pg0hzpvg3xz","seal","null","<div style=""font-size:60px; color: black;"">+</div>","","","","","","","","","","",""
"","null","image-keyboard-response","194","2.0.0","264299","pg0hzpvg3xz","seal","null","stimuli\EXEMPLAR\USED\Etoykeys2.JPG","","","","","Memory","false","null","","","",""
"","null","html-keyboard-response","195","2.0.0","264800","pg0hzpvg3xz","seal","null","<div style=""font-size:60px; color: black;"">+</div>","","","","","","","","","","",""
"","null","image-keyboard-response","196","2.0.0","266803","pg0hzpvg3xz","seal","null","stimuli\STATE\USED\Sredcabbage1.jpg","","","","","Memory","false","null","","","",""
"","null","html-keyboard-response","197","2.0.0","267305","pg0hzpvg3xz","seal","null","<div style=""font-size:60px; color: black;"">+</div>","","","","","","","","","","",""
"","null","image-keyboard-response","198","2.0.0","269307","pg0hzpvg3xz","seal","null","stimuli\STATE\USED\Sdresser1.jpg","","","","","Memory","false","null","","","",""
"","null","html-keyboard-response","199","2.0.0","269810","pg0hzpvg3xz","seal","null","<div style=""font-size:60px; color: black;"">+</div>","","","","","","","","","","",""
"","null","image-keyboard-response","200","2.0.0","271813","pg0hzpvg3xz","seal","null","stimuli\EXEMPLAR\USED\Ehanger1.jpg","","","","","Memory","false","null","","","",""
"","null","html-keyboard-response","201","2.0.0","272315","pg0hzpvg3xz","seal","null","<div style=""font-size:60px; color: black;"">+</div>","","","","","","","","","","",""
"","null","image-keyboard-response","202","2.0.0","274318","pg0hzpvg3xz","seal","null","stimuli\STATE\USED\Schinesefoodbox1.jpg","","","","","Memory","false","null","","","",""
"","null","html-keyboard-response","203","2.0.0","274820","pg0hzpvg3xz","seal","null","<div style=""font-size:60px; color: black;"">+</div>","","","","","","","","","","",""
"","null","image-keyboard-response","204","2.0.0","276822","pg0hzpvg3xz","seal","null","stimuli\EXEMPLAR\USED\Eelectricbass1.jpg","","","","","Memory","false","null","","","",""
"","null","html-keyboard-response","205","2.0.0","277325","pg0hzpvg3xz","seal","null","<div style=""font-size:60px; color: black;"">+</div>","","","","","","","","","","",""
"","null","image-keyboard-response","206","2.0.0","279328","pg0hzpvg3xz","seal","null","stimuli\EXEMPLAR\USED\Eplate1.jpg","","","","","Memory","false","null","","","",""
"","null","html-keyboard-response","207","2.0.0","279831","pg0hzpvg3xz","seal","null","<div style=""font-size:60px; color: black;"">+</div>","","","","","","","","","","",""
"","null","image-keyboard-response","208","2.0.0","281834","pg0hzpvg3xz","seal","null","stimuli\EXEMPLAR\USED\Efolder1.jpg","","","","","Memory","false","null","","","",""
"","null","html-keyboard-response","209","2.0.0","282336","pg0hzpvg3xz","seal","null","<div style=""font-size:60px; color: black;"">+</div>","","","","","","","","","","",""
"","2714","html-button-response","210","2.0.0","285050","pg0hzpvg3xz","seal","0","Are you still there?","","","","","Attention Check","","","","","",""
"","983","image-keyboard-response","211","2.0.0","287053","pg0hzpvg3xz","seal"," ","stimuli\STATE\USED\Schinesefoodbox1.jpg","","","","","Memory","true","true","","","",""
"","null","html-keyboard-response","212","2.0.0","287556","pg0hzpvg3xz","seal","null","<div style=""font-size:60px; color: green;"">+</div>","","","","","","","","","","",""
"","null","image-keyboard-response","213","2.0.0","289558","pg0hzpvg3xz","seal","null","stimuli\STATE\USED\Sapplesredbasket1.JPG","","","","","Memory","false","null","","","",""
"","null","html-keyboard-response","214","2.0.0","290061","pg0hzpvg3xz","seal","null","<div style=""font-size:60px; color: black;"">+</div>","","","","","","","","","","",""
"","null","image-keyboard-response","215","2.0.0","292063","pg0hzpvg3xz","seal","null","stimuli\EXEMPLAR\USED\Edispenser2.jpg","","","","","Memory","false","null","","","",""
"","null","html-keyboard-response","216","2.0.0","292565","pg0hzpvg3xz","seal","null","<div style=""font-size:60px; color: black;"">+</div>","","","","","","","","","","",""
"","null","image-keyboard-response","217","2.0.0","294568","pg0hzpvg3xz","seal","null","stimuli\STATE\USED\Sbriefcasemetal1.JPG","","","","","Memory","false","null","","","",""
"","null","html-keyboard-response","218","2.0.0","295070","pg0hzpvg3xz","seal","null","<div style=""font-size:60px; color: black;"">+</div>","","","","","","","","","","",""
"","null","image-keyboard-response","219","2.0.0","297072","pg0hzpvg3xz","seal","null","stimuli\STATE\USED\Siron2.jpg","","","","","Memory","false","null","","","",""
"","null","html-keyboard-response","220","2.0.0","297575","pg0hzpvg3xz","seal","null","<div style=""font-size:60px; color: black;"">+</div>","","","","","","","","","","",""
"","670","image-keyboard-response","221","2.0.0","299577","pg0hzpvg3xz","seal"," ","stimuli\STATE\USED\Sapplesredbasket1.JPG","","","","","Memory","true","true","","","",""
"","null","html-keyboard-response","222","2.0.0","300079","pg0hzpvg3xz","seal","null","<div style=""font-size:60px; color: green;"">+</div>","","","","","","","","","","",""
"","null","image-keyboard-response","223","2.0.0","302082","pg0hzpvg3xz","seal","null","stimuli\EXEMPLAR\USED\Elei2.jpg","","","","","Memory","false","null","","","",""
"","null","html-keyboard-response","224","2.0.0","302583","pg0hzpvg3xz","seal","null","<div style=""font-size:60px; color: black;"">+</div>","","","","","","","","","","",""
"","null","image-keyboard-response","225","2.0.0","304586","pg0hzpvg3xz","seal","null","stimuli\STATE\USED\Sgiftbag1.jpg","","","","","Memory","false","null","","","",""
"","null","html-keyboard-response","226","2.0.0","305088","pg0hzpvg3xz","seal","null","<div style=""font-size:60px; color: black;"">+</div>","","","","","","","","","","",""
"","null","image-keyboard-response","227","2.0.0","307090","pg0hzpvg3xz","seal","null","stimuli\EXEMPLAR\USED\Earch1.jpg","","","","","Memory","false","null","","","",""
"","null","html-keyboard-response","228","2.0.0","307593","pg0hzpvg3xz","seal","null","<div style=""font-size:60px; color: black;"">+</div>","","","","","","","","","","",""
"","null","image-keyboard-response","229","2.0.0","309595","pg0hzpvg3xz","seal","null","stimuli\EXEMPLAR\USED\Etrophy2.jpg","","","","","Memory","false","null","","","",""
"","null","html-keyboard-response","230","2.0.0","310097","pg0hzpvg3xz","seal","null","<div style=""font-size:60px; color: black;"">+</div>","","","","","","","","","","",""
"","null","image-keyboard-response","231","2.0.0","312099","pg0hzpvg3xz","seal","null","stimuli\EXEMPLAR\USED\Epeppers2.jpg","","","","","Memory","false","null","","","",""
"","null","html-keyboard-response","232","2.0.0","312601","pg0hzpvg3xz","seal","null","<div style=""font-size:60px; color: black;"">+</div>","","","","","","","","","","",""
"","null","image-keyboard-response","233","2.0.0","314604","pg0hzpvg3xz","seal","null","stimuli\STATE\USED\Sschoolbag2.JPG","","","","","Memory","false","null","","","",""
"","null","html-keyboard-response","234","2.0.0","315106","pg0hzpvg3xz","seal","null","<div style=""font-size:60px; color: black;"">+</div>","","","","","","","","","","",""
"","null","image-keyboard-response","235","2.0.0","317109","pg0hzpvg3xz","seal","null","stimuli\STATE\USED\Sbabytoy2.JPG","","","","","Memory","false","null","","","",""
"","null","html-keyboard-response","236","2.0.0","317612","pg0hzpvg3xz","seal","null","<div style=""font-size:60px; color: black;"">+</div>","","","","","","","","","","",""
"","null","image-keyboard-response","237","2.0.0","319615","pg0hzpvg3xz","seal","null","stimuli\EXEMPLAR\USED\Ebicycle1.jpg","","","","","Memory","false","null","","","",""
"","null","html-keyboard-response","238","2.0.0","320116","pg0hzpvg3xz","seal","null","<div style=""font-size:60px; color: black;"">+</div>","","","","","","","","","","",""
"","null","image-keyboard-response","239","2.0.0","322118","pg0hzpvg3xz","seal","null","stimuli\STATE\USED\Scoffeemaker2.JPG","","","","","Memory","false","null","","","",""
"","null","html-keyboard-response","240","2.0.0","322620","pg0hzpvg3xz","seal","null","<div style=""font-size:60px; color: black;"">+</div>","","","","","","","","","","",""
"","null","image-keyboard-response","241","2.0.0","324622","pg0hzpvg3xz","seal","null","stimuli\EXEMPLAR\USED\Emitt2.jpg","","","","","Memory","false","null","","","",""
"","null","html-keyboard-response","242","2.0.0","325125","pg0hzpvg3xz","seal","null","<div style=""font-size:60px; color: black;"">+</div>","","","","","","","","","","",""
"","null","image-keyboard-response","243","2.0.0","327128","pg0hzpvg3xz","seal","null","stimuli\STATE\USED\Sflask2.jpg","","","","","Memory","false","null","","","",""
"","null","html-keyboard-response","244","2.0.0","327629","pg0hzpvg3xz","seal","null","<div style=""font-size:60px; color: black;"">+</div>","","","","","","","","","","",""
"","null","image-keyboard-response","245","2.0.0","329632","pg0hzpvg3xz","seal","null","stimuli\STATE\USED\Sjuiceglass2.JPG","","","","","Memory","false","null","","","",""
"","null","html-keyboard-response","246","2.0.0","330133","pg0hzpvg3xz","seal","null","<div style=""font-size:60px; color: black;"">+</div>","","","","","","","","","","",""
"","1281","image-keyboard-response","247","2.0.0","332136","pg0hzpvg3xz","seal"," ","stimuli\STATE\USED\Scoffeemaker2.JPG","","","","","Memory","true","true","","","",""
"","null","html-keyboard-response","248","2.0.0","332638","pg0hzpvg3xz","seal","null","<div style=""font-size:60px; color: green;"">+</div>","","","","","","","","","","",""
"","null","image-keyboard-response","249","2.0.0","334641","pg0hzpvg3xz","seal","null","stimuli\STATE\USED\Ssweater2.jpg","","","","","Memory","false","null","","","",""
"","null","html-keyboard-response","250","2.0.0","335144","pg0hzpvg3xz","seal","null","<div style=""font-size:60px; color: black;"">+</div>","","","","","","","","","","",""
"","null","image-keyboard-response","251","2.0.0","337146","pg0hzpvg3xz","seal","null","stimuli\EXEMPLAR\USED\Estapler2.jpg","","","","","Memory","false","null","","","",""
"","null","html-keyboard-response","252","2.0.0","337649","pg0hzpvg3xz","seal","null","<div style=""font-size:60px; color: black;"">+</div>","","","","","","","","","","",""
"","null","image-keyboard-response","253","2.0.0","339652","pg0hzpvg3xz","seal","null","stimuli\EXEMPLAR\USED\Emicroscope1.jpg","","","","","Memory","false","null","","","",""
"","null","html-keyboard-response","254","2.0.0","340154","pg0hzpvg3xz","seal","null","<div style=""font-size:60px; color: black;"">+</div>","","","","","","","","","","",""
"","null","image-keyboard-response","255","2.0.0","342156","pg0hzpvg3xz","seal","null","stimuli\EXEMPLAR\USED\Epotatochips2.jpg","","","","","Memory","false","null","","","",""
"","null","html-keyboard-response","256","2.0.0","342658","pg0hzpvg3xz","seal","null","<div style=""font-size:60px; color: black;"">+</div>","","","","","","","","","","",""
"","null","image-keyboard-response","257","2.0.0","344660","pg0hzpvg3xz","seal","null","stimuli\STATE\USED\Scontainer2.JPG","","","","","Memory","false","null","","","",""
"","null","html-keyboard-response","258","2.0.0","345163","pg0hzpvg3xz","seal","null","<div style=""font-size:60px; color: black;"">+</div>","","","","","","","","","","",""
"","1277","image-keyboard-response","259","2.0.0","347165","pg0hzpvg3xz","seal"," ","stimuli\EXEMPLAR\USED\Estapler2.jpg","","","","","Memory","true","true","","","",""
"","null","html-keyboard-response","260","2.0.0","347667","pg0hzpvg3xz","seal","null","<div style=""font-size:60px; color: green;"">+</div>","","","","","","","","","","",""
"","null","image-keyboard-response","261","2.0.0","349669","pg0hzpvg3xz","seal","null","stimuli\STATE\USED\Scooker1.jpg","","","","","Memory","false","null","","","",""
"","null","html-keyboard-response","262","2.0.0","350172","pg0hzpvg3xz","seal","null","<div style=""font-size:60px; color: black;"">+</div>","","","","","","","","","","",""
"","null","image-keyboard-response","263","2.0.0","352174","pg0hzpvg3xz","seal","null","stimuli\STATE\USED\Spumpkinpie2.jpg","","","","","Memory","false","null","","","",""
"","null","html-keyboard-response","264","2.0.0","352676","pg0hzpvg3xz","seal","null","<div style=""font-size:60px; color: black;"">+</div>","","","","","","","","","","",""
"","null","image-keyboard-response","265","2.0.0","354677","pg0hzpvg3xz","seal","null","stimuli\EXEMPLAR\USED\Echeeses2.jpg","","","","","Memory","false","null","","","",""
"","null","html-keyboard-response","266","2.0.0","355179","pg0hzpvg3xz","seal","null","<div style=""font-size:60px; color: black;"">+</div>","","","","","","","","","","",""
"","null","image-keyboard-response","267","2.0.0","357182","pg0hzpvg3xz","seal","null","stimuli\STATE\USED\Spicnicbasket2.jpg","","","","","Memory","false","null","","","",""
"","null","html-keyboard-response","268","2.0.0","357685","pg0hzpvg3xz","seal","null","<div style=""font-size:60px; color: black;"">+</div>","","","","","","","","","","",""
"","null","image-keyboard-response","269","2.0.0","359687","pg0hzpvg3xz","seal","null","stimuli\EXEMPLAR\USED\Etoyhand1.jpg","","","","","Memory","false","null","","","",""
"","null","html-keyboard-response","270","2.0.0","360190","pg0hzpvg3xz","seal","null","<div style=""font-size:60px; color: black;"">+</div>","","","","","","","","","","",""
"","null","image-keyboard-response","271","2.0.0","362192","pg0hzpvg3xz","seal","null","stimuli\EXEMPLAR\USED\Emuffler1.jpg","","","","","Memory","false","null","","","",""
"","null","html-keyboard-response","272","2.0.0","362694","pg0hzpvg3xz","seal","null","<div style=""font-size:60px; color: black;"">+</div>","","","","","","","","","","",""
"","null","image-keyboard-response","273","2.0.0","364697","pg0hzpvg3xz","seal","null","stimuli\STATE\USED\Scateringtray1.jpg","","","","","Memory","false","null","","","",""
"","null","html-keyboard-response","274","2.0.0","365199","pg0hzpvg3xz","seal","null","<div style=""font-size:60px; color: black;"">+</div>","","","","","","","","","","",""
"","null","image-keyboard-response","275","2.0.0","367201","pg0hzpvg3xz","seal","null","stimuli\STATE\USED\Smedicaltape2.jpg","","","","","Memory","false","null","","","",""
"","null","html-keyboard-response","276","2.0.0","367703","pg0hzpvg3xz","seal","null","<div style=""font-size:60px; color: black;"">+</div>","","","","","","","","","","",""
"","null","image-keyboard-response","277","2.0.0","369706","pg0hzpvg3xz","seal","null","stimuli\STATE\USED\Sscanner2.JPG","","","","","Memory","false","null","","","",""
"","null","html-keyboard-response","278","2.0.0","370208","pg0hzpvg3xz","seal","null","<div style=""font-size:60px; color: black;"">+</div>","","","","","","","","","","",""
"","null","image-keyboard-response","279","2.0.0","372211","pg0hzpvg3xz","seal","null","stimuli\EXEMPLAR\USED\Emuffler1.jpg","","","","","Memory","true","null","","","",""
"","null","html-keyboard-response","280","2.0.0","372713","pg0hzpvg3xz","seal","null","<div style=""font-size:60px; color: black;"">+</div>","","","","","","","","","","",""
"","null","image-keyboard-response","281","2.0.0","374716","pg0hzpvg3xz","seal","null","stimuli\STATE\USED\Sseatbelt2.jpg","","","","","Memory","false","null","","","",""
"","null","html-keyboard-response","282","2.0.0","375219","pg0hzpvg3xz","seal","null","<div style=""font-size:60px; color: black;"">+</div>","","","","","","","","","","",""
"","null","image-keyboard-response","283","2.0.0","377221","pg0hzpvg3xz","seal","null","stimuli\EXEMPLAR\USED\Emoney2.jpg","","","","","Memory","false","null","","","",""
"","null","html-keyboard-response","284","2.0.0","377724","pg0hzpvg3xz","seal","null","<div style=""font-size:60px; color: black;"">+</div>","","","","","","","","","","",""
"","null","image-keyboard-response","285","2.0.0","379727","pg0hzpvg3xz","seal","null","stimuli\EXEMPLAR\USED\Ehotairballoon2.jpg","","","","","Memory","false","null","","","",""
"","null","html-keyboard-response","286","2.0.0","380229","pg0hzpvg3xz","seal","null","<div style=""font-size:60px; color: black;"">+</div>","","","","","","","","","","",""
"","null","image-keyboard-response","287","2.0.0","382233","pg0hzpvg3xz","seal","null","stimuli\STATE\USED\Sbelt2.jpg","","","","","Memory","false","null","","","",""
"","null","html-keyboard-response","288","2.0.0","382734","pg0hzpvg3xz","seal","null","<div style=""font-size:60px; color: black;"">+</div>","","","","","","","","","","",""
"","null","image-keyboard-response","289","2.0.0","384737","pg0hzpvg3xz","seal","null","stimuli\EXEMPLAR\USED\Enozzle1.jpg","","","","","Memory","false","null","","","",""
"","null","html-keyboard-response","290","2.0.0","385239","pg0hzpvg3xz","seal","null","<div style=""font-size:60px; color: black;"">+</div>","","","","","","","","","","",""
"","1296","image-keyboard-response","291","2.0.0","387241","pg0hzpvg3xz","seal"," ","stimuli\EXEMPLAR\USED\Emoney2.jpg","","","","","Memory","true","true","","","",""
"","null","html-keyboard-response","292","2.0.0","387744","pg0hzpvg3xz","seal","null","<div style=""font-size:60px; color: green;"">+</div>","","","","","","","","","","",""
"","null","image-keyboard-response","293","2.0.0","389745","pg0hzpvg3xz","seal","null","stimuli\EXEMPLAR\USED\Echopsticks2.jpg","","","","","Memory","false","null","","","",""
"","null","html-keyboard-response","294","2.0.0","390248","pg0hzpvg3xz","seal","null","<div style=""font-size:60px; color: black;"">+</div>","","","","","","","","","","",""
"","null","image-keyboard-response","295","2.0.0","392251","pg0hzpvg3xz","seal","null","stimuli\STATE\USED\Srainbowslice2.jpg","","","","","Memory","false","null","","","",""
"","null","html-keyboard-response","296","2.0.0","392752","pg0hzpvg3xz","seal","null","<div style=""font-size:60px; color: black;"">+</div>","","","","","","","","","","",""
"","null","image-keyboard-response","297","2.0.0","394755","pg0hzpvg3xz","seal","null","stimuli\EXEMPLAR\USED\Erabbit2.jpg","","","","","Memory","false","null","","","",""
"","null","html-keyboard-response","298","2.0.0","395256","pg0hzpvg3xz","seal","null","<div style=""font-size:60px; color: black;"">+</div>","","","","","","","","","","",""
"","null","image-keyboard-response","299","2.0.0","397258","pg0hzpvg3xz","seal","null","stimuli\STATE\USED\Sdonut1.jpg","","","","","Memory","false","null","","","",""
"","null","html-keyboard-response","300","2.0.0","397760","pg0hzpvg3xz","seal","null","<div style=""font-size:60px; color: black;"">+</div>","","","","","","","","","","",""
"","null","image-keyboard-response","301","2.0.0","399762","pg0hzpvg3xz","seal","null","stimuli\EXEMPLAR\USED\Eholepunch2.jpg","","","","","Memory","false","null","","","",""
"","null","html-keyboard-response","302","2.0.0","400265","pg0hzpvg3xz","seal","null","<div style=""font-size:60px; color: black;"">+</div>","","","","","","","","","","",""
"","null","image-keyboard-response","303","2.0.0","402266","pg0hzpvg3xz","seal","null","stimuli\STATE\USED\Sbrushes1.jpg","","","","","Memory","false","null","","","",""
"","null","html-keyboard-response","304","2.0.0","402768","pg0hzpvg3xz","seal","null","<div style=""font-size:60px; color: black;"">+</div>","","","","","","","","","","",""
"","1485","image-keyboard-response","305","2.0.0","404771","pg0hzpvg3xz","seal"," ","stimuli\EXEMPLAR\USED\Erabbit2.jpg","","","","","Memory","true","true","","","",""
"","null","html-keyboard-response","306","2.0.0","405273","pg0hzpvg3xz","seal","null","<div style=""font-size:60px; color: green;"">+</div>","","","","","","","","","","",""
"","null","image-keyboard-response","307","2.0.0","407275","pg0hzpvg3xz","seal","null","stimuli\EXEMPLAR\USED\Ehoe2.jpg","","","","","Memory","false","null","","","",""
"","null","html-keyboard-response","308","2.0.0","407777","pg0hzpvg3xz","seal","null","<div style=""font-size:60px; color: black;"">+</div>","","","","","","","","","","",""
"","null","image-keyboard-response","309","2.0.0","409779","pg0hzpvg3xz","seal","null","stimuli\EXEMPLAR\USED\Etrowel2.jpg","","","","","Memory","false","null","","","",""
"","null","html-keyboard-response","310","2.0.0","410282","pg0hzpvg3xz","seal","null","<div style=""font-size:60px; color: black;"">+</div>","","","","","","","","","","",""
"","null","image-keyboard-response","311","2.0.0","412285","pg0hzpvg3xz","seal","null","stimuli\STATE\USED\Sdryer1.jpg","","","","","Memory","false","null","","","",""
"","null","html-keyboard-response","312","2.0.0","412788","pg0hzpvg3xz","seal","null","<div style=""font-size:60px; color: black;"">+</div>","","","","","","","","","","",""
"","1854","html-button-response","313","2.0.0","414643","pg0hzpvg3xz","seal","0","Are you still there?","","","","","Attention Check","","","","","",""
"","null","image-keyboard-response","314","2.0.0","416645","pg0hzpvg3xz","seal","null","stimuli\STATE\USED\Slockbox2.jpg","","","","","Memory","false","null","","","",""
"","null","html-keyboard-response","315","2.0.0","417147","pg0hzpvg3xz","seal","null","<div style=""font-size:60px; color: black;"">+</div>","","","","","","","","","","",""
"","null","image-keyboard-response","316","2.0.0","419149","pg0hzpvg3xz","seal","null","stimuli\STATE\USED\Sphoneold1.jpg","","","","","Memory","false","null","","","",""
"","null","html-keyboard-response","317","2.0.0","419652","pg0hzpvg3xz","seal","null","<div style=""font-size:60px; color: black;"">+</div>","","","","","","","","","","",""
"","null","image-keyboard-response","318","2.0.0","421654","pg0hzpvg3xz","seal","null","stimuli\EXEMPLAR\USED\Ecalculator2.jpg","","","","","Memory","false","null","","","",""
"","null","html-keyboard-response","319","2.0.0","422157","pg0hzpvg3xz","seal","null","<div style=""font-size:60px; color: black;"">+</div>","","","","","","","","","","",""
"","null","image-keyboard-response","320","2.0.0","424159","pg0hzpvg3xz","seal","null","stimuli\EXEMPLAR\USED\Espraybottle1.jpg","","","","","Memory","false","null","","","",""
"","null","html-keyboard-response","321","2.0.0","424660","pg0hzpvg3xz","seal","null","<div style=""font-size:60px; color: black;"">+</div>","","","","","","","","","","",""
"","null","image-keyboard-response","322","2.0.0","426663","pg0hzpvg3xz","seal","null","stimuli\STATE\USED\Shandshake2.JPG","","","","","Memory","false","null","","","",""
"","null","html-keyboard-response","323","2.0.0","427165","pg0hzpvg3xz","seal","null","<div style=""font-size:60px; color: black;"">+</div>","","","","","","","","","","",""
"","null","image-keyboard-response","324","2.0.0","429168","pg0hzpvg3xz","seal","null","stimuli\STATE\USED\Sphoneold1.jpg","","","","","Memory","true","null","","","",""
"","null","html-keyboard-response","325","2.0.0","429669","pg0hzpvg3xz","seal","null","<div style=""font-size:60px; color: black;"">+</div>","","","","","","","","","","",""
"","null","image-keyboard-response","326","2.0.0","431671","pg0hzpvg3xz","seal","null","stimuli\STATE\USED\Spolarbear1.jpg","","","","","Memory","false","null","","","",""
"","null","html-keyboard-response","327","2.0.0","432173","pg0hzpvg3xz","seal","null","<div style=""font-size:60px; color: black;"">+</div>","","","","","","","","","","",""
"","null","image-keyboard-response","328","2.0.0","434176","pg0hzpvg3xz","seal","null","stimuli\STATE\USED\Sphone2.JPG","","","","","Memory","false","null","","","",""
"","null","html-keyboard-response","329","2.0.0","434679","pg0hzpvg3xz","seal","null","<div style=""font-size:60px; color: black;"">+</div>","","","","","","","","","","",""
"","null","image-keyboard-response","330","2.0.0","436682","pg0hzpvg3xz","seal","null","stimuli\EXEMPLAR\USED\Ebread1.jpg","","","","","Memory","false","null","","","",""
"","null","html-keyboard-response","331","2.0.0","437183","pg0hzpvg3xz","seal","null","<div style=""font-size:60px; color: black;"">+</div>","","","","","","","","","","",""
"","null","image-keyboard-response","332","2.0.0","439185","pg0hzpvg3xz","seal","null","stimuli\EXEMPLAR\USED\Eremover1.jpg","","","","","Memory","false","null","","","",""
"","null","html-keyboard-response","333","2.0.0","439688","pg0hzpvg3xz","seal","null","<div style=""font-size:60px; color: black;"">+</div>","","","","","","","","","","",""
"","null","image-keyboard-response","334","2.0.0","441691","pg0hzpvg3xz","seal","null","stimuli\EXEMPLAR\USED\Ecamera1.jpg","","","","","Memory","false","null","","","",""
"","null","html-keyboard-response","335","2.0.0","442192","pg0hzpvg3xz","seal","null","<div style=""font-size:60px; color: black;"">+</div>","","","","","","","","","","",""
"","null","image-keyboard-response","336","2.0.0","444195","pg0hzpvg3xz","seal","null","stimuli\STATE\USED\Sdie2.jpg","","","","","Memory","false","null","","","",""
"","null","html-keyboard-response","337","2.0.0","444697","pg0hzpvg3xz","seal","null","<div style=""font-size:60px; color: black;"">+</div>","","","","","","","","","","",""
"","null","image-keyboard-response","338","2.0.0","446700","pg0hzpvg3xz","seal","null","stimuli\STATE\USED\Swaffleiron1.jpg","","","","","Memory","false","null","","","",""
"","null","html-keyboard-response","339","2.0.0","447202","pg0hzpvg3xz","seal","null","<div style=""font-size:60px; color: black;"">+</div>","","","","","","","","","","",""
"","null","image-keyboard-response","340","2.0.0","449205","pg0hzpvg3xz","seal","null","stimuli\EXEMPLAR\USED\Epliers2.jpg","","","","","Memory","false","null","","","",""
"","null","html-keyboard-response","341","2.0.0","449707","pg0hzpvg3xz","seal","null","<div style=""font-size:60px; color: black;"">+</div>","","","","","","","","","","",""
"","null","image-keyboard-response","342","2.0.0","451718","pg0hzpvg3xz","seal","null","stimuli\EXEMPLAR\USED\Eheadphones1.jpg","","","","","Memory","false","null","","","",""
"","null","html-keyboard-response","343","2.0.0","452221","pg0hzpvg3xz","seal","null","<div style=""font-size:60px; color: black;"">+</div>","","","","","","","","","","",""
"","null","image-keyboard-response","344","2.0.0","454223","pg0hzpvg3xz","seal","null","stimuli\STATE\USED\Sstoplight1.jpg","","","","","Memory","false","null","","","",""
"","null","html-keyboard-response","345","2.0.0","454726","pg0hzpvg3xz","seal","null","<div style=""font-size:60px; color: black;"">+</div>","","","","","","","","","","",""
"","null","image-keyboard-response","346","2.0.0","456728","pg0hzpvg3xz","seal","null","stimuli\EXEMPLAR\USED\Elog1.jpg","","","","","Memory","false","null","","","",""
"","null","html-keyboard-response","347","2.0.0","457230","pg0hzpvg3xz","seal","null","<div style=""font-size:60px; color: black;"">+</div>","","","","","","","","","","",""
"","2849","html-keyboard-response","348","2.0.0","460080","pg0hzpvg3xz","seal"," ","
          <p>In the next part of this experiment, you will see 2 images. Please select the image that you recall from the image stream.</p>
          <p>You will also rate your confidence for each image you recall.</p>
          <p>Press any key to start.</p>
        ","","","","","","","","","","",""
"","1803","html-button-response","349","2.0.0","461883","pg0hzpvg3xz","seal","0","Which of these items did you see before?","","","","","Test","","true","[""stimuli\\EXEMPLAR\\USED\\Elei2.jpg"",""stimuli\\EXEMPLAR\\USED\\Elei1.jpg""]","stimuli\EXEMPLAR\USED\Elei2.jpg","stimuli\EXEMPLAR\USED\Elei2.jpg",""
"","2394","image-slider-response","350","2.0.0","464280","pg0hzpvg3xz","seal","5","stimuli\EXEMPLAR\USED\Elei2.jpg","","","","","","","","","","","3"
"","4150","html-button-response","351","2.0.0","468431","pg0hzpvg3xz","seal","1","Which of these items did you see before?","","","","","Test","","false","[""stimuli\\EXEMPLAR\\USED\\Eremote1.jpg"",""stimuli\\EXEMPLAR\\USED\\Eremote2.jpg""]","stimuli\EXEMPLAR\USED\Eremote1.jpg","stimuli\EXEMPLAR\USED\Eremote2.jpg",""
"","4231","image-slider-response","352","2.0.0","472663","pg0hzpvg3xz","seal","4","stimuli\EXEMPLAR\USED\Eremote2.jpg","","","","","","","","","","","3"
"","3478","html-button-response","353","2.0.0","476143","pg0hzpvg3xz","seal","0","Which of these items did you see before?","","","","","Test","","true","[""stimuli\\EXEMPLAR\\USED\\Eholepunch2.jpg"",""stimuli\\EXEMPLAR\\USED\\Eholepunch1.jpg""]","stimuli\EXEMPLAR\USED\Eholepunch2.jpg","stimuli\EXEMPLAR\USED\Eholepunch2.jpg",""
"","4892","image-slider-response","354","2.0.0","481036","pg0hzpvg3xz","seal","2","stimuli\EXEMPLAR\USED\Eholepunch2.jpg","","","","","","","","","","","3"
"","1622","html-button-response","355","2.0.0","482660","pg0hzpvg3xz","seal","0","Which of these items did you see before?","","","","","Test","","false","[""stimuli\\EXEMPLAR\\USED\\Enozzle2.jpg"",""stimuli\\EXEMPLAR\\USED\\Enozzle1.jpg""]","stimuli\EXEMPLAR\USED\Enozzle1.jpg","stimuli\EXEMPLAR\USED\Enozzle2.jpg",""
"","3375","image-slider-response","356","2.0.0","486036","pg0hzpvg3xz","seal","3","stimuli\EXEMPLAR\USED\Enozzle2.jpg","","","","","","","","","","","3"
"","1621","html-button-response","357","2.0.0","487658","pg0hzpvg3xz","seal","0","Which of these items did you see before?","","","","","Test","","true","[""stimuli\\EXEMPLAR\\USED\\Eframe1.jpg"",""stimuli\\EXEMPLAR\\USED\\Eframe2.jpg""]","stimuli\EXEMPLAR\USED\Eframe1.jpg","stimuli\EXEMPLAR\USED\Eframe1.jpg",""
"","1817","image-slider-response","358","2.0.0","489477","pg0hzpvg3xz","seal","4","stimuli\EXEMPLAR\USED\Eframe1.jpg","","","","","","","","","","","3"
"","1601","html-button-response","359","2.0.0","491079","pg0hzpvg3xz","seal","1","Which of these items did you see before?","","","","","Test","","true","[""stimuli\\STATE\\USED\\Schinesefoodbox2.jpg"",""stimuli\\STATE\\USED\\Schinesefoodbox1.jpg""]","stimuli\STATE\USED\Schinesefoodbox1.jpg","stimuli\STATE\USED\Schinesefoodbox1.jpg",""
"","1615","image-slider-response","360","2.0.0","492696","pg0hzpvg3xz","seal","5","stimuli\STATE\USED\Schinesefoodbox1.jpg","","","","","","","","","","","3"
"","1906","html-button-response","361","2.0.0","494602","pg0hzpvg3xz","seal","1","Which of these items did you see before?","","","","","Test","","true","[""stimuli\\EXEMPLAR\\USED\\Econe1.jpg"",""stimuli\\EXEMPLAR\\USED\\Econe2.jpg""]","stimuli\EXEMPLAR\USED\Econe2.jpg","stimuli\EXEMPLAR\USED\Econe2.jpg",""
"","1920","image-slider-response","362","2.0.0","496524","pg0hzpvg3xz","seal","3","stimuli\EXEMPLAR\USED\Econe2.jpg","","","","","","","","","","","3"
"","1574","html-button-response","363","2.0.0","498099","pg0hzpvg3xz","seal","1","Which of these items did you see before?","","","","","Test","","true","[""stimuli\\EXEMPLAR\\USED\\Egame1.jpg"",""stimuli\\EXEMPLAR\\USED\\Egame2.jpg""]","stimuli\EXEMPLAR\USED\Egame2.jpg","stimuli\EXEMPLAR\USED\Egame2.jpg",""
"","2511","image-slider-response","364","2.0.0","500611","pg0hzpvg3xz","seal","2","stimuli\EXEMPLAR\USED\Egame2.jpg","","","","","","","","","","","3"
"","1233","html-button-response","365","2.0.0","501846","pg0hzpvg3xz","seal","0","Which of these items did you see before?","","","","","Test","","true","[""stimuli\\STATE\\USED\\Sdonut1.jpg"",""stimuli\\STATE\\USED\\Sdonut2.jpg""]","stimuli\STATE\USED\Sdonut1.jpg","stimuli\STATE\USED\Sdonut1.jpg",""
"","1643","image-slider-response","366","2.0.0","503490","pg0hzpvg3xz","seal","5","stimuli\STATE\USED\Sdonut1.jpg","","","","","","","","","","","3"
"","2337","html-button-response","367","2.0.0","505828","pg0hzpvg3xz","seal","1","Which of these items did you see before?","","","","","Test","","true","[""stimuli\\STATE\\USED\\Sdoughhands1.jpg"",""stimuli\\STATE\\USED\\Sdoughhands2.jpg""]","stimuli\STATE\USED\Sdoughhands2.jpg","stimuli\STATE\USED\Sdoughhands2.jpg",""
"","1386","image-slider-response","368","2.0.0","507216","pg0hzpvg3xz","seal","5","stimuli\STATE\USED\Sdoughhands2.jpg","","","","","","","","","","","3"
"","2260","html-button-response","369","2.0.0","509477","pg0hzpvg3xz","seal","1","Which of these items did you see before?","","","","","Test","","true","[""stimuli\\EXEMPLAR\\USED\\Ebonzai1.jpg"",""stimuli\\EXEMPLAR\\USED\\Ebonzai2.jpg""]","stimuli\EXEMPLAR\USED\Ebonzai2.jpg","stimuli\EXEMPLAR\USED\Ebonzai2.jpg",""
"","2426","image-slider-response","370","2.0.0","511904","pg0hzpvg3xz","seal","4","stimuli\EXEMPLAR\USED\Ebonzai2.jpg","","","","","","","","","","","3"
"","2452","html-button-response","371","2.0.0","514357","pg0hzpvg3xz","seal","0","Which of these items did you see before?","","","","","Test","","false","[""stimuli\\STATE\\USED\\Speppers2.jpg"",""stimuli\\STATE\\USED\\Speppers1.jpg""]","stimuli\STATE\USED\Speppers1.jpg","stimuli\STATE\USED\Speppers2.jpg",""
"","2853","image-slider-response","372","2.0.0","517211","pg0hzpvg3xz","seal","2","stimuli\STATE\USED\Speppers2.jpg","","","","","","","","","","","3"
"","1529","html-button-response","373","2.0.0","518742","pg0hzpvg3xz","seal","1","Which of these items did you see before?","","","","","Test","","true","[""stimuli\\EXEMPLAR\\USED\\Epeppers1.jpg"",""stimuli\\EXEMPLAR\\USED\\Epeppers2.jpg""]","stimuli\EXEMPLAR\USED\Epeppers2.jpg","stimuli\EXEMPLAR\USED\Epeppers2.jpg",""
"","2535","image-slider-response","374","2.0.0","521279","pg0hzpvg3xz","seal","4","stimuli\EXEMPLAR\USED\Epeppers2.jpg","","","","","","","","","","","3"
"","1971","html-button-response","375","2.0.0","523251","pg0hzpvg3xz","seal","1","Which of these items did you see before?","","","","","Test","","true","[""stimuli\\STATE\\USED\\Sstoplight2.jpg"",""stimuli\\STATE\\USED\\Sstoplight1.jpg""]","stimuli\STATE\USED\Sstoplight1.jpg","stimuli\STATE\USED\Sstoplight1.jpg",""
"","1836","image-slider-response","376","2.0.0","525088","pg0hzpvg3xz","seal","2","stimuli\STATE\USED\Sstoplight1.jpg","","","","","","","","","","","3"
"","2663","html-button-response","377","2.0.0","527752","pg0hzpvg3xz","seal","0","Which of these items did you see before?","","","","","Test","","false","[""stimuli\\STATE\\USED\\Shairbrush1.jpg"",""stimuli\\STATE\\USED\\Shairbrush2.jpg""]","stimuli\STATE\USED\Shairbrush2.jpg","stimuli\STATE\USED\Shairbrush1.jpg",""
"","1537","image-slider-response","378","2.0.0","529291","pg0hzpvg3xz","seal","4","stimuli\STATE\USED\Shairbrush1.jpg","","","","","","","","","","","3"
"","1903","html-button-response","379","2.0.0","531195","pg0hzpvg3xz","seal","1","Which of these items did you see before?","","","","","Test","","false","[""stimuli\\EXEMPLAR\\USED\\Etoyplane2.jpg"",""stimuli\\EXEMPLAR\\USED\\Etoyplane1.jpg""]","stimuli\EXEMPLAR\USED\Etoyplane2.jpg","stimuli\EXEMPLAR\USED\Etoyplane1.jpg",""
"","1314","image-slider-response","380","2.0.0","532511","pg0hzpvg3xz","seal","4","stimuli\EXEMPLAR\USED\Etoyplane1.jpg","","","","","","","","","","","3"
"","1143","html-button-response","381","2.0.0","533655","pg0hzpvg3xz","seal","1","Which of these items did you see before?","","","","","Test","","true","[""stimuli\\EXEMPLAR\\USED\\Ehotairballoon1.jpg"",""stimuli\\EXEMPLAR\\USED\\Ehotairballoon2.jpg""]","stimuli\EXEMPLAR\USED\Ehotairballoon2.jpg","stimuli\EXEMPLAR\USED\Ehotairballoon2.jpg",""
"","1429","image-slider-response","382","2.0.0","535085","pg0hzpvg3xz","seal","5","stimuli\EXEMPLAR\USED\Ehotairballoon2.jpg","","","","","","","","","","","3"
"","1027","html-button-response","383","2.0.0","536113","pg0hzpvg3xz","seal","0","Which of these items did you see before?","","","","","Test","","false","[""stimuli\\STATE\\USED\\Sseatbelt1.jpg"",""stimuli\\STATE\\USED\\Sseatbelt2.jpg""]","stimuli\STATE\USED\Sseatbelt2.jpg","stimuli\STATE\USED\Sseatbelt1.jpg",""
"","2363","image-slider-response","384","2.0.0","538478","pg0hzpvg3xz","seal","4","stimuli\STATE\USED\Sseatbelt1.jpg","","","","","","","","","","","3"
"","1949","html-button-response","385","2.0.0","540428","pg0hzpvg3xz","seal","1","Which of these items did you see before?","","","","","Test","","true","[""stimuli\\STATE\\USED\\Stiger1.jpg"",""stimuli\\STATE\\USED\\Stiger2.jpg""]","stimuli\STATE\USED\Stiger2.jpg","stimuli\STATE\USED\Stiger2.jpg",""
"","1679","image-slider-response","386","2.0.0","542108","pg0hzpvg3xz","seal","2","stimuli\STATE\USED\Stiger2.jpg","","","","","","","","","","","3"
"","1892","html-button-response","387","2.0.0","544001","pg0hzpvg3xz","seal","0","Which of these items did you see before?","","","","","Test","","false","[""stimuli\\EXEMPLAR\\USED\\Edinosaur1.jpg"",""stimuli\\EXEMPLAR\\USED\\Edinosaur2.jpg""]","stimuli\EXEMPLAR\USED\Edinosaur2.jpg","stimuli\EXEMPLAR\USED\Edinosaur1.jpg",""
"","1426","image-slider-response","388","2.0.0","545428","pg0hzpvg3xz","seal","2","stimuli\EXEMPLAR\USED\Edinosaur1.jpg","","","","","","","","","","","3"
"","1084","html-button-response","389","2.0.0","546514","pg0hzpvg3xz","seal","1","Which of these items did you see before?","","","","","Test","","true","[""stimuli\\EXEMPLAR\\USED\\Echocolatebar2.jpg"",""stimuli\\EXEMPLAR\\USED\\Echocolatebar1.jpg""]","stimuli\EXEMPLAR\USED\Echocolatebar1.jpg","stimuli\EXEMPLAR\USED\Echocolatebar1.jpg",""
"","1771","image-slider-response","390","2.0.0","548286","pg0hzpvg3xz","seal","5","stimuli\EXEMPLAR\USED\Echocolatebar1.jpg","","","","","","","","","","","3"
"","2092","html-button-response","391","2.0.0","550379","pg0hzpvg3xz","seal","1","Which of these items did you see before?","","","","","Test","","true","[""stimuli\\STATE\\USED\\Sdrum2.jpg"",""stimuli\\STATE\\USED\\Sdrum1.jpg""]","stimuli\STATE\USED\Sdrum1.jpg","stimuli\STATE\USED\Sdrum1.jpg",""
"","1841","image-slider-response","392","2.0.0","552221","pg0hzpvg3xz","seal","2","stimuli\STATE\USED\Sdrum1.jpg","","","","","","","","","","","3"
"","1376","html-button-response","393","2.0.0","553599","pg0hzpvg3xz","seal","0","Which of these items did you see before?","","","","","Test","","true","[""stimuli\\EXEMPLAR\\USED\\Emedal2.jpg"",""stimuli\\EXEMPLAR\\USED\\Emedal1.jpg""]","stimuli\EXEMPLAR\USED\Emedal2.jpg","stimuli\EXEMPLAR\USED\Emedal2.jpg",""
"","1705","image-slider-response","394","2.0.0","555305","pg0hzpvg3xz","seal","5","stimuli\EXEMPLAR\USED\Emedal2.jpg","","","","","","","","","","","3"
"","2078","html-button-response","395","2.0.0","557384","pg0hzpvg3xz","seal","0","Which of these items did you see before?","","","","","Test","","false","[""stimuli\\STATE\\USED\\Swaffleiron2.jpg"",""stimuli\\STATE\\USED\\Swaffleiron1.jpg""]","stimuli\STATE\USED\Swaffleiron1.jpg","stimuli\STATE\USED\Swaffleiron2.jpg",""
"","1526","image-slider-response","396","2.0.0","558912","pg0hzpvg3xz","seal","5","stimuli\STATE\USED\Swaffleiron2.jpg","","","","","","","","","","","3"
"","1150","html-button-response","397","2.0.0","560062","pg0hzpvg3xz","seal","1","Which of these items did you see before?","","","","","Test","","true","[""stimuli\\STATE\\USED\\Sboxwhite2.jpg"",""stimuli\\STATE\\USED\\Sboxwhite1.jpg""]","stimuli\STATE\USED\Sboxwhite1.jpg","stimuli\STATE\USED\Sboxwhite1.jpg",""
"","2110","image-slider-response","398","2.0.0","562174","pg0hzpvg3xz","seal","5","stimuli\STATE\USED\Sboxwhite1.jpg","","","","","","","","","","","3"
"","1600","html-button-response","399","2.0.0","563775","pg0hzpvg3xz","seal","1","Which of these items did you see before?","","","","","Test","","false","[""stimuli\\STATE\\USED\\Snapkins1.jpg"",""stimuli\\STATE\\USED\\Snapkins2.jpg""]","stimuli\STATE\USED\Snapkins1.jpg","stimuli\STATE\USED\Snapkins2.jpg",""
"","2283","image-slider-response","400","2.0.0","566060","pg0hzpvg3xz","seal","2","stimuli\STATE\USED\Snapkins2.jpg","","","","","","","","","","","3"
"","1447","html-button-response","401","2.0.0","567507","pg0hzpvg3xz","seal","0","Which of these items did you see before?","","","","","Test","","true","[""stimuli\\STATE\\USED\\Sapplesredbasket1.JPG"",""stimuli\\STATE\\USED\\Sapplesredbasket2.JPG""]","stimuli\STATE\USED\Sapplesredbasket1.JPG","stimuli\STATE\USED\Sapplesredbasket1.JPG",""
"","1415","image-slider-response","402","2.0.0","568924","pg0hzpvg3xz","seal","5","stimuli\STATE\USED\Sapplesredbasket1.JPG","","","","","","","","","","","3"
"","967","html-button-response","403","2.0.0","569892","pg0hzpvg3xz","seal","1","Which of these items did you see before?","","","","","Test","","true","[""stimuli\\EXEMPLAR\\USED\\Eballoon1.jpg"",""stimuli\\EXEMPLAR\\USED\\Eballoon2.jpg""]","stimuli\EXEMPLAR\USED\Eballoon2.jpg","stimuli\EXEMPLAR\USED\Eballoon2.jpg",""
"","1326","image-slider-response","404","2.0.0","571220","pg0hzpvg3xz","seal","5","stimuli\EXEMPLAR\USED\Eballoon2.jpg","","","","","","","","","","","3"
"","1468","html-button-response","405","2.0.0","572689","pg0hzpvg3xz","seal","0","Which of these items did you see before?","","","","","Test","","false","[""stimuli\\STATE\\USED\\Scontainer1.JPG"",""stimuli\\STATE\\USED\\Scontainer2.JPG""]","stimuli\STATE\USED\Scontainer2.JPG","stimuli\STATE\USED\Scontainer1.JPG",""
"","1300","image-slider-response","406","2.0.0","573990","pg0hzpvg3xz","seal","2","stimuli\STATE\USED\Scontainer1.JPG","","","","","","","","","","","3"
"","1024","html-button-response","407","2.0.0","575015","pg0hzpvg3xz","seal","0","Which of these items did you see before?","","","","","Test","","true","[""stimuli\\EXEMPLAR\\USED\\Estapler2.jpg"",""stimuli\\EXEMPLAR\\USED\\Estapler1.jpg""]","stimuli\EXEMPLAR\USED\Estapler2.jpg","stimuli\EXEMPLAR\USED\Estapler2.jpg",""
"","1323","image-slider-response","408","2.0.0","576339","pg0hzpvg3xz","seal","5","stimuli\EXEMPLAR\USED\Estapler2.jpg","","","","","","","","","","","3"
"","1073","html-button-response","409","2.0.0","577413","pg0hzpvg3xz","seal","1","Which of these items did you see before?","","","","","Test","","true","[""stimuli\\STATE\\USED\\Scooker2.jpg"",""stimuli\\STATE\\USED\\Scooker1.jpg""]","stimuli\STATE\USED\Scooker1.jpg","stimuli\STATE\USED\Scooker1.jpg",""
"","1342","image-slider-response","410","2.0.0","578757","pg0hzpvg3xz","seal","5","stimuli\STATE\USED\Scooker1.jpg","","","","","","","","","","","3"
"","1461","html-button-response","411","2.0.0","580219","pg0hzpvg3xz","seal","1","Which of these items did you see before?","","","","","Test","","true","[""stimuli\\EXEMPLAR\\USED\\Efishbowl1.jpg"",""stimuli\\EXEMPLAR\\USED\\Efishbowl2.jpg""]","stimuli\EXEMPLAR\USED\Efishbowl2.jpg","stimuli\EXEMPLAR\USED\Efishbowl2.jpg",""
"","1432","image-slider-response","412","2.0.0","581653","pg0hzpvg3xz","seal","4","stimuli\EXEMPLAR\USED\Efishbowl2.jpg","","","","","","","","","","","3"
"","1569","html-button-response","413","2.0.0","583223","pg0hzpvg3xz","seal","0","Which of these items did you see before?","","","","","Test","","true","[""stimuli\\EXEMPLAR\\USED\\Ebinoculars2.jpg"",""stimuli\\EXEMPLAR\\USED\\Ebinoculars1.jpg""]","stimuli\EXEMPLAR\USED\Ebinoculars2.jpg","stimuli\EXEMPLAR\USED\Ebinoculars2.jpg",""
"","1325","image-slider-response","414","2.0.0","584550","pg0hzpvg3xz","seal","5","stimuli\EXEMPLAR\USED\Ebinoculars2.jpg","","","","","","","","","","","3"
"","1800","html-button-response","415","2.0.0","586351","pg0hzpvg3xz","seal","0","Which of these items did you see before?","","","","","Test","","true","[""stimuli\\EXEMPLAR\\USED\\Etoyhand1.jpg"",""stimuli\\EXEMPLAR\\USED\\Etoyhand2.jpg""]","stimuli\EXEMPLAR\USED\Etoyhand1.jpg","stimuli\EXEMPLAR\USED\Etoyhand1.jpg",""
"","1416","image-slider-response","416","2.0.0","587769","pg0hzpvg3xz","seal","2","stimuli\EXEMPLAR\USED\Etoyhand1.jpg","","","","","","","","","","","3"
"","1704","html-button-response","417","2.0.0","589474","pg0hzpvg3xz","seal","0","Which of these items did you see before?","","","","","Test","","true","[""stimuli\\EXEMPLAR\\USED\\Eteapot1.JPG"",""stimuli\\EXEMPLAR\\USED\\Eteapot2.JPG""]","stimuli\EXEMPLAR\USED\Eteapot1.JPG","stimuli\EXEMPLAR\USED\Eteapot1.JPG",""
"","2351","image-slider-response","418","2.0.0","591826","pg0hzpvg3xz","seal","2","stimuli\EXEMPLAR\USED\Eteapot1.JPG","","","","","","","","","","","3"
"","1092","html-button-response","419","2.0.0","592919","pg0hzpvg3xz","seal","0","Which of these items did you see before?","","","","","Test","","true","[""stimuli\\STATE\\USED\\Smetronome2.JPG"",""stimuli\\STATE\\USED\\Smetronome1.jpg""]","stimuli\STATE\USED\Smetronome2.JPG","stimuli\STATE\USED\Smetronome2.JPG",""
"","1799","image-slider-response","420","2.0.0","594720","pg0hzpvg3xz","seal","4","stimuli\STATE\USED\Smetronome2.JPG","","","","","","","","","","","3"
"","1426","html-button-response","421","2.0.0","596147","pg0hzpvg3xz","seal","1","Which of these items did you see before?","","","","","Test","","false","[""stimuli\\EXEMPLAR\\USED\\Eswimsuit1.jpg"",""stimuli\\EXEMPLAR\\USED\\Eswimsuit2.jpg""]","stimuli\EXEMPLAR\USED\Eswimsuit1.jpg","stimuli\EXEMPLAR\USED\Eswimsuit2.jpg",""
"","3894","image-slider-response","422","2.0.0","600043","pg0hzpvg3xz","seal","1","stimuli\EXEMPLAR\USED\Eswimsuit2.jpg","","","","","","","","","","","3"
"","1061","html-button-response","423","2.0.0","601104","pg0hzpvg3xz","seal","0","Which of these items did you see before?","","","","","Test","","true","[""stimuli\\STATE\\USED\\Siron2.jpg"",""stimuli\\STATE\\USED\\Siron1.jpg""]","stimuli\STATE\USED\Siron2.jpg","stimuli\STATE\USED\Siron2.jpg",""
"","3135","image-slider-response","424","2.0.0","604241","pg0hzpvg3xz","seal","2","stimuli\STATE\USED\Siron2.jpg","","","","","","","","","","","3"
"","1843","html-button-response","425","2.0.0","606085","pg0hzpvg3xz","seal","0","Which of these items did you see before?","","","","","Test","","false","[""stimuli\\STATE\\USED\\Sgiftbag2.jpg"",""stimuli\\STATE\\USED\\Sgiftbag1.jpg""]","stimuli\STATE\USED\Sgiftbag1.jpg","stimuli\STATE\USED\Sgiftbag2.jpg",""
"","1306","image-slider-response","426","2.0.0","607392","pg0hzpvg3xz","seal","3","stimuli\STATE\USED\Sgiftbag2.jpg","","","","","","","","","","","3"
"","1053","html-button-response","427","2.0.0","608446","pg0hzpvg3xz","seal","0","Which of these items did you see before?","","","","","Test","","true","[""stimuli\\EXEMPLAR\\USED\\Erabbit2.jpg"",""stimuli\\EXEMPLAR\\USED\\Erabbit1.jpg""]","stimuli\EXEMPLAR\USED\Erabbit2.jpg","stimuli\EXEMPLAR\USED\Erabbit2.jpg",""
"","1451","image-slider-response","428","2.0.0","609899","pg0hzpvg3xz","seal","5","stimuli\EXEMPLAR\USED\Erabbit2.jpg","","","","","","","","","","","3"
"","1750","html-button-response","429","2.0.0","611649","pg0hzpvg3xz","seal","1","Which of these items did you see before?","","","","","Test","","true","[""stimuli\\EXEMPLAR\\USED\\Earch2.jpg"",""stimuli\\EXEMPLAR\\USED\\Earch1.jpg""]","stimuli\EXEMPLAR\USED\Earch1.jpg","stimuli\EXEMPLAR\USED\Earch1.jpg",""
"","1646","image-slider-response","430","2.0.0","613296","pg0hzpvg3xz","seal","5","stimuli\EXEMPLAR\USED\Earch1.jpg","","","","","","","","","","","3"
"","1000","html-button-response","431","2.0.0","614298","pg0hzpvg3xz","seal","1","Which of these items did you see before?","","","","","Test","","true","[""stimuli\\EXEMPLAR\\USED\\Eglobe1.jpg"",""stimuli\\EXEMPLAR\\USED\\Eglobe2.jpg""]","stimuli\EXEMPLAR\USED\Eglobe2.jpg","stimuli\EXEMPLAR\USED\Eglobe2.jpg",""
"","1318","image-slider-response","432","2.0.0","615617","pg0hzpvg3xz","seal","5","stimuli\EXEMPLAR\USED\Eglobe2.jpg","","","","","","","","","","","3"
"","1054","html-button-response","433","2.0.0","616672","pg0hzpvg3xz","seal","1","Which of these items did you see before?","","","","","Test","","true","[""stimuli\\STATE\\USED\\Sbrie1.JPG"",""stimuli\\STATE\\USED\\Sbrie2.JPG""]","stimuli\STATE\USED\Sbrie2.JPG","stimuli\STATE\USED\Sbrie2.JPG",""
"","1835","image-slider-response","434","2.0.0","618508","pg0hzpvg3xz","seal","5","stimuli\STATE\USED\Sbrie2.JPG","","","","","","","","","","","3"
"","1846","html-button-response","435","2.0.0","620355","pg0hzpvg3xz","seal","1","Which of these items did you see before?","","","","","Test","","true","[""stimuli\\STATE\\USED\\Saccordion1.jpg"",""stimuli\\STATE\\USED\\Saccordion2.jpg""]","stimuli\STATE\USED\Saccordion2.jpg","stimuli\STATE\USED\Saccordion2.jpg",""
"","1409","image-slider-response","436","2.0.0","621765","pg0hzpvg3xz","seal","5","stimuli\STATE\USED\Saccordion2.jpg","","","","","","","","","","","3"
"","2087","html-button-response","437","2.0.0","623853","pg0hzpvg3xz","seal","1","Which of these items did you see before?","","","","","Test","","true","[""stimuli\\EXEMPLAR\\USED\\Ebread2.jpg"",""stimuli\\EXEMPLAR\\USED\\Ebread1.jpg""]","stimuli\EXEMPLAR\USED\Ebread1.jpg","stimuli\EXEMPLAR\USED\Ebread1.jpg",""
"","2084","image-slider-response","438","2.0.0","625939","pg0hzpvg3xz","seal","4","stimuli\EXEMPLAR\USED\Ebread1.jpg","","","","","","","","","","","3"
"","1772","html-button-response","439","2.0.0","627712","pg0hzpvg3xz","seal","1","Which of these items did you see before?","","","","","Test","","true","[""stimuli\\EXEMPLAR\\USED\\Ehorn1.jpg"",""stimuli\\EXEMPLAR\\USED\\Ehorn2.jpg""]","stimuli\EXEMPLAR\USED\Ehorn2.jpg","stimuli\EXEMPLAR\USED\Ehorn2.jpg",""
"","1288","image-slider-response","440","2.0.0","629001","pg0hzpvg3xz","seal","4","stimuli\EXEMPLAR\USED\Ehorn2.jpg","","","","","","","","","","","3"
"","1894","html-button-response","441","2.0.0","630896","pg0hzpvg3xz","seal","1","Which of these items did you see before?","","","","","Test","","false","[""stimuli\\STATE\\USED\\Smedicaltape2.jpg"",""stimuli\\STATE\\USED\\Smedicaltape1.jpg""]","stimuli\STATE\USED\Smedicaltape2.jpg","stimuli\STATE\USED\Smedicaltape1.jpg",""
"","1527","image-slider-response","442","2.0.0","632424","pg0hzpvg3xz","seal","3","stimuli\STATE\USED\Smedicaltape1.jpg","","","","","","","","","","","3"
"","1059","html-button-response","443","2.0.0","633484","pg0hzpvg3xz","seal","1","Which of these items did you see before?","","","","","Test","","true","[""stimuli\\STATE\\USED\\Sscales1.jpg"",""stimuli\\STATE\\USED\\Sscales2.jpg""]","stimuli\STATE\USED\Sscales2.jpg","stimuli\STATE\USED\Sscales2.jpg",""
"","1335","image-slider-response","444","2.0.0","634821","pg0hzpvg3xz","seal","5","stimuli\STATE\USED\Sscales2.jpg","","","","","","","","","","","3"
"","1528","html-button-response","445","2.0.0","636350","pg0hzpvg3xz","seal","0","Which of these items did you see before?","","","","","Test","","true","[""stimuli\\STATE\\USED\\Sgiftbox1.jpg"",""stimuli\\STATE\\USED\\Sgiftbox2.jpg""]","stimuli\STATE\USED\Sgiftbox1.jpg","stimuli\STATE\USED\Sgiftbox1.jpg",""
"","1150","image-slider-response","446","2.0.0","637501","pg0hzpvg3xz","seal","3","stimuli\STATE\USED\Sgiftbox1.jpg","","","","","","","","","","","3"
"","1617","html-button-response","447","2.0.0","639120","pg0hzpvg3xz","seal","1","Which of these items did you see before?","","","","","Test","","true","[""stimuli\\EXEMPLAR\\USED\\Eheadphones2.jpg"",""stimuli\\EXEMPLAR\\USED\\Eheadphones1.jpg""]","stimuli\EXEMPLAR\USED\Eheadphones1.jpg","stimuli\EXEMPLAR\USED\Eheadphones1.jpg",""
"","1205","image-slider-response","448","2.0.0","640326","pg0hzpvg3xz","seal","4","stimuli\EXEMPLAR\USED\Eheadphones1.jpg","","","","","","","","","","","3"
"","24836","survey-text","449","2.0.0","665168","pg0hzpvg3xz","seal","{""experiment_purpose"":""memory"",""Q1"":""if there was a major difference between the images"",""technical_issues"":""no""}","","","","","","","","","","","",""
