"success","rt","trial_type","trial_index","plugin_version","time_elapsed","random_id","participant","response","stimulus","timeout","failed_images","failed_audio","failed_video","trial_phase","repeated","correct","choice_images","correct_image","choice","slider_start"
"true","2377","fullscreen","0","2.0.0","3386","phy4ybvdja7","turtle","","","","","","","","","","","","",""
"","2218","survey-text","1","2.0.0","5610","phy4ybvdja7","turtle","{""participant_id"":""turtle""}","","","","","","","","","","","",""
"","2326","html-keyboard-response","2","2.0.0","7938","phy4ybvdja7","turtle"," ","<p>Welcome to the Massive Memory Experiment. Press any key to move on. </p>","","","","","","","","","","",""
"","31055","html-keyboard-response","3","2.0.0","38994","phy4ybvdja7","turtle"," ","
      <div style='width:900px;margin: auto;'><p>In the first section you will see a stream of images, with fixation crosses in between each image.</p>
      <p>Each image will remain on screen for 2 seconds. Your job is to detect images that you have seen before within the experiment. Whenever you see an image that you have seen previously <b>at any point in the stream of images</b>, press the spacebar.</p>
      <p>We will let you know if you have correctly or falsely clicked the spacebar on an image by changing the color of the fixation cross.</p>
      <p>If you press the spacebar correctly (the image really did appear earlier), the fixation cross will turn green. If you pressed the spacebar incorrectly, the fixation cross will turn red.</p>
      <p>Please watch carefully to detect the images that show up again!</p>
      <p>Press any key to start.</p></div>
    ","","","","","","","","","","",""
"true","","preload","4","2.0.0","42001","phy4ybvdja7","turtle","","","false","[]","[]","[]","","","","","","",""
"","null","image-keyboard-response","5","2.0.0","44007","phy4ybvdja7","turtle","null","stimuli\STATE\USED\Sdoughhands2.jpg","","","","","Memory","false","null","","","",""
"","null","html-keyboard-response","6","2.0.0","44509","phy4ybvdja7","turtle","null","<div style=""font-size:60px; color: black;"">+</div>","","","","","","","","","","",""
"","null","image-keyboard-response","7","2.0.0","46513","phy4ybvdja7","turtle","null","stimuli\EXEMPLAR\USED\Eheadphones1.jpg","","","","","Memory","false","null","","","",""
"","null","html-keyboard-response","8","2.0.0","47016","phy4ybvdja7","turtle","null","<div style=""font-size:60px; color: black;"">+</div>","","","","","","","","","","",""
"","null","image-keyboard-response","9","2.0.0","49019","phy4ybvdja7","turtle","null","stimuli\EXEMPLAR\USED\Etoywrench1.jpg","","","","","Memory","false","null","","","",""
"","null","html-keyboard-response","10","2.0.0","49522","phy4ybvdja7","turtle","null","<div style=""font-size:60px; color: black;"">+</div>","","","","","","","","","","",""
"","null","image-keyboard-response","11","2.0.0","51526","phy4ybvdja7","turtle","null","stimuli\EXEMPLAR\USED\Emitt2.jpg","","","","","Memory","false","null","","","",""
"","null","html-keyboard-response","12","2.0.0","52029","phy4ybvdja7","turtle","null","<div style=""font-size:60px; color: black;"">+</div>","","","","","","","","","","",""
"","null","image-keyboard-response","13","2.0.0","54033","phy4ybvdja7","turtle","null","stimuli\EXEMPLAR\USED\Etoykeys1.jpg","","","","","Memory","false","null","","","",""
"","null","html-keyboard-response","14","2.0.0","54536","phy4ybvdja7","turtle","null","<div style=""font-size:60px; color: black;"">+</div>","","","","","","","","","","",""
"","610","image-keyboard-response","15","2.0.0","56540","phy4ybvdja7","turtle"," ","stimuli\EXEMPLAR\USED\Eheadphones1.jpg","","","","","Memory","true","true","","","",""
"","null","html-keyboard-response","16","2.0.0","57043","phy4ybvdja7","turtle","null","<div style=""font-size:60px; color: green;"">+</div>","","","","","","","","","","",""
"","null","image-keyboard-response","17","2.0.0","59046","phy4ybvdja7","turtle","null","stimuli\STATE\USED\Spie2.JPG","","","","","Memory","false","null","","","",""
"","null","html-keyboard-response","18","2.0.0","59548","phy4ybvdja7","turtle","null","<div style=""font-size:60px; color: black;"">+</div>","","","","","","","","","","",""
"","null","image-keyboard-response","19","2.0.0","61553","phy4ybvdja7","turtle","null","stimuli\STATE\USED\Scoffeemaker2.JPG","","","","","Memory","false","null","","","",""
"","null","html-keyboard-response","20","2.0.0","62055","phy4ybvdja7","turtle","null","<div style=""font-size:60px; color: black;"">+</div>","","","","","","","","","","",""
"","null","image-keyboard-response","21","2.0.0","64059","phy4ybvdja7","turtle","null","stimuli\STATE\USED\Spicnicbasket1.jpg","","","","","Memory","false","null","","","",""
"","null","html-keyboard-response","22","2.0.0","64562","phy4ybvdja7","turtle","null","<div style=""font-size:60px; color: black;"">+</div>","","","","","","","","","","",""
"","null","image-keyboard-response","23","2.0.0","66566","phy4ybvdja7","turtle","null","stimuli\STATE\USED\Sdie1.jpg","","","","","Memory","false","null","","","",""
"","null","html-keyboard-response","24","2.0.0","67068","phy4ybvdja7","turtle","null","<div style=""font-size:60px; color: black;"">+</div>","","","","","","","","","","",""
"","null","image-keyboard-response","25","2.0.0","69071","phy4ybvdja7","turtle","null","stimuli\STATE\USED\Sdishwasher2.jpg","","","","","Memory","false","null","","","",""
"","null","html-keyboard-response","26","2.0.0","69575","phy4ybvdja7","turtle","null","<div style=""font-size:60px; color: black;"">+</div>","","","","","","","","","","",""
"","null","image-keyboard-response","27","2.0.0","71578","phy4ybvdja7","turtle","null","stimuli\STATE\USED\Spatiotable2.jpg","","","","","Memory","false","null","","","",""
"","null","html-keyboard-response","28","2.0.0","72081","phy4ybvdja7","turtle","null","<div style=""font-size:60px; color: black;"">+</div>","","","","","","","","","","",""
"","null","image-keyboard-response","29","2.0.0","74085","phy4ybvdja7","turtle","null","stimuli\STATE\USED\Sdresser1.jpg","","","","","Memory","false","null","","","",""
"","null","html-keyboard-response","30","2.0.0","74587","phy4ybvdja7","turtle","null","<div style=""font-size:60px; color: black;"">+</div>","","","","","","","","","","",""
"","null","image-keyboard-response","31","2.0.0","76591","phy4ybvdja7","turtle","null","stimuli\STATE\USED\Sdishes2.JPG","","","","","Memory","false","null","","","",""
"","null","html-keyboard-response","32","2.0.0","77094","phy4ybvdja7","turtle","null","<div style=""font-size:60px; color: black;"">+</div>","","","","","","","","","","",""
"","null","image-keyboard-response","33","2.0.0","79097","phy4ybvdja7","turtle","null","stimuli\STATE\USED\Sflask1.jpg","","","","","Memory","false","null","","","",""
"","null","html-keyboard-response","34","2.0.0","79600","phy4ybvdja7","turtle","null","<div style=""font-size:60px; color: black;"">+</div>","","","","","","","","","","",""
"","null","image-keyboard-response","35","2.0.0","81604","phy4ybvdja7","turtle","null","stimuli\EXEMPLAR\USED\Eplate2.jpg","","","","","Memory","false","null","","","",""
"","null","html-keyboard-response","36","2.0.0","82107","phy4ybvdja7","turtle","null","<div style=""font-size:60px; color: black;"">+</div>","","","","","","","","","","",""
"","null","image-keyboard-response","37","2.0.0","84110","phy4ybvdja7","turtle","null","stimuli\STATE\USED\Ssweater1.jpg","","","","","Memory","false","null","","","",""
"","null","html-keyboard-response","38","2.0.0","84613","phy4ybvdja7","turtle","null","<div style=""font-size:60px; color: black;"">+</div>","","","","","","","","","","",""
"","null","image-keyboard-response","39","2.0.0","86617","phy4ybvdja7","turtle","null","stimuli\STATE\USED\Shandmirror2.jpg","","","","","Memory","false","null","","","",""
"","null","html-keyboard-response","40","2.0.0","87120","phy4ybvdja7","turtle","null","<div style=""font-size:60px; color: black;"">+</div>","","","","","","","","","","",""
"","470","image-keyboard-response","41","2.0.0","89123","phy4ybvdja7","turtle"," ","stimuli\STATE\USED\Sflask1.jpg","","","","","Memory","true","true","","","",""
"","null","html-keyboard-response","42","2.0.0","89626","phy4ybvdja7","turtle","null","<div style=""font-size:60px; color: green;"">+</div>","","","","","","","","","","",""
"","null","image-keyboard-response","43","2.0.0","91629","phy4ybvdja7","turtle","null","stimuli\EXEMPLAR\USED\Ebell2.jpg","","","","","Memory","false","null","","","",""
"","null","html-keyboard-response","44","2.0.0","92132","phy4ybvdja7","turtle","null","<div style=""font-size:60px; color: black;"">+</div>","","","","","","","","","","",""
"","null","image-keyboard-response","45","2.0.0","94135","phy4ybvdja7","turtle","null","stimuli\STATE\USED\Sbox2.jpg","","","","","Memory","false","null","","","",""
"","null","html-keyboard-response","46","2.0.0","94638","phy4ybvdja7","turtle","null","<div style=""font-size:60px; color: black;"">+</div>","","","","","","","","","","",""
"","null","image-keyboard-response","47","2.0.0","96642","phy4ybvdja7","turtle","null","stimuli\STATE\USED\Sgiftbag1.jpg","","","","","Memory","false","null","","","",""
"","null","html-keyboard-response","48","2.0.0","97144","phy4ybvdja7","turtle","null","<div style=""font-size:60px; color: black;"">+</div>","","","","","","","","","","",""
"","null","image-keyboard-response","49","2.0.0","99148","phy4ybvdja7","turtle","null","stimuli\STATE\USED\Srainbowslice2.jpg","","","","","Memory","false","null","","","",""
"","null","html-keyboard-response","50","2.0.0","99651","phy4ybvdja7","turtle","null","<div style=""font-size:60px; color: black;"">+</div>","","","","","","","","","","",""
"","null","image-keyboard-response","51","2.0.0","101654","phy4ybvdja7","turtle","null","stimuli\STATE\USED\Sapple1.jpg","","","","","Memory","false","null","","","",""
"","null","html-keyboard-response","52","2.0.0","102157","phy4ybvdja7","turtle","null","<div style=""font-size:60px; color: black;"">+</div>","","","","","","","","","","",""
"","null","image-keyboard-response","53","2.0.0","104160","phy4ybvdja7","turtle","null","stimuli\EXEMPLAR\USED\Earch1.jpg","","","","","Memory","false","null","","","",""
"","null","html-keyboard-response","54","2.0.0","104663","phy4ybvdja7","turtle","null","<div style=""font-size:60px; color: black;"">+</div>","","","","","","","","","","",""
"","null","image-keyboard-response","55","2.0.0","106666","phy4ybvdja7","turtle","null","stimuli\STATE\USED\Sbrie2.JPG","","","","","Memory","false","null","","","",""
"","null","html-keyboard-response","56","2.0.0","107169","phy4ybvdja7","turtle","null","<div style=""font-size:60px; color: black;"">+</div>","","","","","","","","","","",""
"","null","image-keyboard-response","57","2.0.0","109173","phy4ybvdja7","turtle","null","stimuli\EXEMPLAR\USED\Erazor2.jpg","","","","","Memory","false","null","","","",""
"","null","html-keyboard-response","58","2.0.0","109675","phy4ybvdja7","turtle","null","<div style=""font-size:60px; color: black;"">+</div>","","","","","","","","","","",""
"","524","image-keyboard-response","59","2.0.0","111678","phy4ybvdja7","turtle"," ","stimuli\STATE\USED\Sapple1.jpg","","","","","Memory","true","true","","","",""
"","null","html-keyboard-response","60","2.0.0","112181","phy4ybvdja7","turtle","null","<div style=""font-size:60px; color: green;"">+</div>","","","","","","","","","","",""
"","null","image-keyboard-response","61","2.0.0","114185","phy4ybvdja7","turtle","null","stimuli\STATE\USED\Sjuiceglass2.JPG","","","","","Memory","false","null","","","",""
"","null","html-keyboard-response","62","2.0.0","114688","phy4ybvdja7","turtle","null","<div style=""font-size:60px; color: black;"">+</div>","","","","","","","","","","",""
"","null","image-keyboard-response","63","2.0.0","116692","phy4ybvdja7","turtle","null","stimuli\STATE\USED\Spumpkinpie2.jpg","","","","","Memory","false","null","","","",""
"","null","html-keyboard-response","64","2.0.0","117196","phy4ybvdja7","turtle","null","<div style=""font-size:60px; color: black;"">+</div>","","","","","","","","","","",""
"","null","image-keyboard-response","65","2.0.0","119199","phy4ybvdja7","turtle","null","stimuli\EXEMPLAR\USED\Etoyhand1.jpg","","","","","Memory","false","null","","","",""
"","null","html-keyboard-response","66","2.0.0","119702","phy4ybvdja7","turtle","null","<div style=""font-size:60px; color: black;"">+</div>","","","","","","","","","","",""
"","null","image-keyboard-response","67","2.0.0","121705","phy4ybvdja7","turtle","null","stimuli\EXEMPLAR\USED\Etrain2.jpg","","","","","Memory","false","null","","","",""
"","null","html-keyboard-response","68","2.0.0","122208","phy4ybvdja7","turtle","null","<div style=""font-size:60px; color: black;"">+</div>","","","","","","","","","","",""
"","null","image-keyboard-response","69","2.0.0","124210","phy4ybvdja7","turtle","null","stimuli\EXEMPLAR\USED\Epotatochips2.jpg","","","","","Memory","false","null","","","",""
"","null","html-keyboard-response","70","2.0.0","124712","phy4ybvdja7","turtle","null","<div style=""font-size:60px; color: black;"">+</div>","","","","","","","","","","",""
"","null","image-keyboard-response","71","2.0.0","126715","phy4ybvdja7","turtle","null","stimuli\STATE\USED\Sscanner2.JPG","","","","","Memory","false","null","","","",""
"","null","html-keyboard-response","72","2.0.0","127218","phy4ybvdja7","turtle","null","<div style=""font-size:60px; color: black;"">+</div>","","","","","","","","","","",""
"","620","image-keyboard-response","73","2.0.0","129222","phy4ybvdja7","turtle"," ","stimuli\EXEMPLAR\USED\Etoyhand1.jpg","","","","","Memory","true","true","","","",""
"","null","html-keyboard-response","74","2.0.0","129725","phy4ybvdja7","turtle","null","<div style=""font-size:60px; color: green;"">+</div>","","","","","","","","","","",""
"","null","image-keyboard-response","75","2.0.0","131728","phy4ybvdja7","turtle","null","stimuli\EXEMPLAR\USED\Ebunny2.jpg","","","","","Memory","false","null","","","",""
"","null","html-keyboard-response","76","2.0.0","132231","phy4ybvdja7","turtle","null","<div style=""font-size:60px; color: black;"">+</div>","","","","","","","","","","",""
"","null","image-keyboard-response","77","2.0.0","134234","phy4ybvdja7","turtle","null","stimuli\EXEMPLAR\USED\Estapler1.jpg","","","","","Memory","false","null","","","",""
"","null","html-keyboard-response","78","2.0.0","134737","phy4ybvdja7","turtle","null","<div style=""font-size:60px; color: black;"">+</div>","","","","","","","","","","",""
"","null","image-keyboard-response","79","2.0.0","136740","phy4ybvdja7","turtle","null","stimuli\EXEMPLAR\USED\Efishbowl1.jpg","","","","","Memory","false","null","","","",""
"","null","html-keyboard-response","80","2.0.0","137243","phy4ybvdja7","turtle","null","<div style=""font-size:60px; color: black;"">+</div>","","","","","","","","","","",""
"","null","image-keyboard-response","81","2.0.0","139246","phy4ybvdja7","turtle","null","stimuli\STATE\USED\Sbriefcasemetal2.JPG","","","","","Memory","false","null","","","",""
"","null","html-keyboard-response","82","2.0.0","139749","phy4ybvdja7","turtle","null","<div style=""font-size:60px; color: black;"">+</div>","","","","","","","","","","",""
"","null","image-keyboard-response","83","2.0.0","141752","phy4ybvdja7","turtle","null","stimuli\STATE\USED\Sbreadslice1.jpg","","","","","Memory","false","null","","","",""
"","null","html-keyboard-response","84","2.0.0","142255","phy4ybvdja7","turtle","null","<div style=""font-size:60px; color: black;"">+</div>","","","","","","","","","","",""
"","null","image-keyboard-response","85","2.0.0","144259","phy4ybvdja7","turtle","null","stimuli\EXEMPLAR\USED\Eswimsuit1.jpg","","","","","Memory","false","null","","","",""
"","null","html-keyboard-response","86","2.0.0","144761","phy4ybvdja7","turtle","null","<div style=""font-size:60px; color: black;"">+</div>","","","","","","","","","","",""
"","null","image-keyboard-response","87","2.0.0","146766","phy4ybvdja7","turtle","null","stimuli\EXEMPLAR\USED\Epeppers2.jpg","","","","","Memory","false","null","","","",""
"","null","html-keyboard-response","88","2.0.0","147268","phy4ybvdja7","turtle","null","<div style=""font-size:60px; color: black;"">+</div>","","","","","","","","","","",""
"","1177","image-keyboard-response","89","2.0.0","149272","phy4ybvdja7","turtle"," ","stimuli\EXEMPLAR\USED\Epliers2.jpg","","","","","Memory","false","false","","","",""
"","null","html-keyboard-response","90","2.0.0","149775","phy4ybvdja7","turtle","null","<div style=""font-size:60px; color: red;"">+</div>","","","","","","","","","","",""
"","674","image-keyboard-response","91","2.0.0","151778","phy4ybvdja7","turtle"," ","stimuli\STATE\USED\Sbreadslice1.jpg","","","","","Memory","true","true","","","",""
"","null","html-keyboard-response","92","2.0.0","152280","phy4ybvdja7","turtle","null","<div style=""font-size:60px; color: green;"">+</div>","","","","","","","","","","",""
"","null","image-keyboard-response","93","2.0.0","154283","phy4ybvdja7","turtle","null","stimuli\EXEMPLAR\USED\Eballoon1.jpg","","","","","Memory","false","null","","","",""
"","null","html-keyboard-response","94","2.0.0","154786","phy4ybvdja7","turtle","null","<div style=""font-size:60px; color: black;"">+</div>","","","","","","","","","","",""
"","null","image-keyboard-response","95","2.0.0","156788","phy4ybvdja7","turtle","null","stimuli\STATE\USED\Sredcabbage2.jpg","","","","","Memory","false","null","","","",""
"","null","html-keyboard-response","96","2.0.0","157291","phy4ybvdja7","turtle","null","<div style=""font-size:60px; color: black;"">+</div>","","","","","","","","","","",""
"","1487","image-keyboard-response","97","2.0.0","159295","phy4ybvdja7","turtle"," ","stimuli\EXEMPLAR\USED\Eteapot2.JPG","","","","","Memory","false","false","","","",""
"","null","html-keyboard-response","98","2.0.0","159798","phy4ybvdja7","turtle","null","<div style=""font-size:60px; color: red;"">+</div>","","","","","","","","","","",""
"","null","image-keyboard-response","99","2.0.0","161801","phy4ybvdja7","turtle","null","stimuli\STATE\USED\Sscales2.jpg","","","","","Memory","false","null","","","",""
"","null","html-keyboard-response","100","2.0.0","162304","phy4ybvdja7","turtle","null","<div style=""font-size:60px; color: black;"">+</div>","","","","","","","","","","",""
"","null","image-keyboard-response","101","2.0.0","164307","phy4ybvdja7","turtle","null","stimuli\EXEMPLAR\USED\Eelectricbass2.jpg","","","","","Memory","false","null","","","",""
"","null","html-keyboard-response","102","2.0.0","164810","phy4ybvdja7","turtle","null","<div style=""font-size:60px; color: black;"">+</div>","","","","","","","","","","",""
"","null","image-keyboard-response","103","2.0.0","166813","phy4ybvdja7","turtle","null","stimuli\EXEMPLAR\USED\Edispenser1.jpg","","","","","Memory","false","null","","","",""
"","null","html-keyboard-response","104","2.0.0","167316","phy4ybvdja7","turtle","null","<div style=""font-size:60px; color: black;"">+</div>","","","","","","","","","","",""
"","605","image-keyboard-response","105","2.0.0","169319","phy4ybvdja7","turtle"," ","stimuli\EXEMPLAR\USED\Eteapot2.JPG","","","","","Memory","true","true","","","",""
"","null","html-keyboard-response","106","2.0.0","169822","phy4ybvdja7","turtle","null","<div style=""font-size:60px; color: green;"">+</div>","","","","","","","","","","",""
"","1499","html-button-response","107","2.0.0","171324","phy4ybvdja7","turtle","0","Are you still there?","","","","","Attention Check","","","","","",""
"","null","image-keyboard-response","108","2.0.0","173327","phy4ybvdja7","turtle","null","stimuli\STATE\USED\Sbrushes2.jpg","","","","","Memory","false","null","","","",""
"","null","html-keyboard-response","109","2.0.0","173829","phy4ybvdja7","turtle","null","<div style=""font-size:60px; color: black;"">+</div>","","","","","","","","","","",""
"","null","image-keyboard-response","110","2.0.0","175833","phy4ybvdja7","turtle","null","stimuli\EXEMPLAR\USED\Etrophy2.jpg","","","","","Memory","false","null","","","",""
"","null","html-keyboard-response","111","2.0.0","176336","phy4ybvdja7","turtle","null","<div style=""font-size:60px; color: black;"">+</div>","","","","","","","","","","",""
"","null","image-keyboard-response","112","2.0.0","178340","phy4ybvdja7","turtle","null","stimuli\EXEMPLAR\USED\Econe2.jpg","","","","","Memory","false","null","","","",""
"","null","html-keyboard-response","113","2.0.0","178842","phy4ybvdja7","turtle","null","<div style=""font-size:60px; color: black;"">+</div>","","","","","","","","","","",""
"","null","image-keyboard-response","114","2.0.0","180846","phy4ybvdja7","turtle","null","stimuli\EXEMPLAR\USED\Edinosaur1.jpg","","","","","Memory","false","null","","","",""
"","null","html-keyboard-response","115","2.0.0","181349","phy4ybvdja7","turtle","null","<div style=""font-size:60px; color: black;"">+</div>","","","","","","","","","","",""
"","null","image-keyboard-response","116","2.0.0","183352","phy4ybvdja7","turtle","null","stimuli\STATE\USED\Scontainer1.JPG","","","","","Memory","false","null","","","",""
"","null","html-keyboard-response","117","2.0.0","183855","phy4ybvdja7","turtle","null","<div style=""font-size:60px; color: black;"">+</div>","","","","","","","","","","",""
"","null","image-keyboard-response","118","2.0.0","185859","phy4ybvdja7","turtle","null","stimuli\EXEMPLAR\USED\Emedal1.jpg","","","","","Memory","false","null","","","",""
"","null","html-keyboard-response","119","2.0.0","186362","phy4ybvdja7","turtle","null","<div style=""font-size:60px; color: black;"">+</div>","","","","","","","","","","",""
"","null","image-keyboard-response","120","2.0.0","188366","phy4ybvdja7","turtle","null","stimuli\STATE\USED\Spotpan1.JPG","","","","","Memory","false","null","","","",""
"","null","html-keyboard-response","121","2.0.0","188868","phy4ybvdja7","turtle","null","<div style=""font-size:60px; color: black;"">+</div>","","","","","","","","","","",""
"","null","image-keyboard-response","122","2.0.0","190872","phy4ybvdja7","turtle","null","stimuli\EXEMPLAR\USED\Ebinoculars2.jpg","","","","","Memory","false","null","","","",""
"","null","html-keyboard-response","123","2.0.0","191375","phy4ybvdja7","turtle","null","<div style=""font-size:60px; color: black;"">+</div>","","","","","","","","","","",""
"","null","image-keyboard-response","124","2.0.0","193379","phy4ybvdja7","turtle","null","stimuli\EXEMPLAR\USED\Eladder1.jpg","","","","","Memory","false","null","","","",""
"","null","html-keyboard-response","125","2.0.0","193881","phy4ybvdja7","turtle","null","<div style=""font-size:60px; color: black;"">+</div>","","","","","","","","","","",""
"","null","image-keyboard-response","126","2.0.0","195885","phy4ybvdja7","turtle","null","stimuli\STATE\USED\Stiger1.jpg","","","","","Memory","false","null","","","",""
"","null","html-keyboard-response","127","2.0.0","196388","phy4ybvdja7","turtle","null","<div style=""font-size:60px; color: black;"">+</div>","","","","","","","","","","",""
"","null","image-keyboard-response","128","2.0.0","198392","phy4ybvdja7","turtle","null","stimuli\EXEMPLAR\USED\Ebracelet2.jpg","","","","","Memory","false","null","","","",""
"","null","html-keyboard-response","129","2.0.0","198894","phy4ybvdja7","turtle","null","<div style=""font-size:60px; color: black;"">+</div>","","","","","","","","","","",""
"","null","image-keyboard-response","130","2.0.0","200897","phy4ybvdja7","turtle","null","stimuli\EXEMPLAR\USED\Etrowel2.jpg","","","","","Memory","false","null","","","",""
"","null","html-keyboard-response","131","2.0.0","201400","phy4ybvdja7","turtle","null","<div style=""font-size:60px; color: black;"">+</div>","","","","","","","","","","",""
"","588","image-keyboard-response","132","2.0.0","203404","phy4ybvdja7","turtle"," ","stimuli\EXEMPLAR\USED\Eladder1.jpg","","","","","Memory","true","true","","","",""
"","null","html-keyboard-response","133","2.0.0","203907","phy4ybvdja7","turtle","null","<div style=""font-size:60px; color: green;"">+</div>","","","","","","","","","","",""
"","null","image-keyboard-response","134","2.0.0","205910","phy4ybvdja7","turtle","null","stimuli\STATE\USED\Sskull1.jpg","","","","","Memory","false","null","","","",""
"","null","html-keyboard-response","135","2.0.0","206413","phy4ybvdja7","turtle","null","<div style=""font-size:60px; color: black;"">+</div>","","","","","","","","","","",""
"","null","image-keyboard-response","136","2.0.0","208417","phy4ybvdja7","turtle","null","stimuli\STATE\USED\Sphoneold1.jpg","","","","","Memory","false","null","","","",""
"","null","html-keyboard-response","137","2.0.0","208919","phy4ybvdja7","turtle","null","<div style=""font-size:60px; color: black;"">+</div>","","","","","","","","","","",""
"","null","image-keyboard-response","138","2.0.0","210922","phy4ybvdja7","turtle","null","stimuli\EXEMPLAR\USED\Ekayak2.jpg","","","","","Memory","false","null","","","",""
"","null","html-keyboard-response","139","2.0.0","211425","phy4ybvdja7","turtle","null","<div style=""font-size:60px; color: black;"">+</div>","","","","","","","","","","",""
"","null","image-keyboard-response","140","2.0.0","213429","phy4ybvdja7","turtle","null","stimuli\EXEMPLAR\USED\Egame2.jpg","","","","","Memory","false","null","","","",""
"","null","html-keyboard-response","141","2.0.0","213932","phy4ybvdja7","turtle","null","<div style=""font-size:60px; color: black;"">+</div>","","","","","","","","","","",""
"","null","image-keyboard-response","142","2.0.0","215936","phy4ybvdja7","turtle","null","stimuli\EXEMPLAR\USED\Echeeses2.jpg","","","","","Memory","false","null","","","",""
"","null","html-keyboard-response","143","2.0.0","216438","phy4ybvdja7","turtle","null","<div style=""font-size:60px; color: black;"">+</div>","","","","","","","","","","",""
"","null","image-keyboard-response","144","2.0.0","218441","phy4ybvdja7","turtle","null","stimuli\EXEMPLAR\USED\Esuitcase1.jpg","","","","","Memory","false","null","","","",""
"","null","html-keyboard-response","145","2.0.0","218944","phy4ybvdja7","turtle","null","<div style=""font-size:60px; color: black;"">+</div>","","","","","","","","","","",""
"","null","image-keyboard-response","146","2.0.0","220947","phy4ybvdja7","turtle","null","stimuli\EXEMPLAR\USED\Emicroscope2.jpg","","","","","Memory","false","null","","","",""
"","null","html-keyboard-response","147","2.0.0","221450","phy4ybvdja7","turtle","null","<div style=""font-size:60px; color: black;"">+</div>","","","","","","","","","","",""
"","null","image-keyboard-response","148","2.0.0","223452","phy4ybvdja7","turtle","null","stimuli\EXEMPLAR\USED\Eholepunch2.jpg","","","","","Memory","false","null","","","",""
"","null","html-keyboard-response","149","2.0.0","223955","phy4ybvdja7","turtle","null","<div style=""font-size:60px; color: black;"">+</div>","","","","","","","","","","",""
"","null","image-keyboard-response","150","2.0.0","225959","phy4ybvdja7","turtle","null","stimuli\STATE\USED\Schinesefoodbox1.jpg","","","","","Memory","false","null","","","",""
"","null","html-keyboard-response","151","2.0.0","226462","phy4ybvdja7","turtle","null","<div style=""font-size:60px; color: black;"">+</div>","","","","","","","","","","",""
"","null","image-keyboard-response","152","2.0.0","228466","phy4ybvdja7","turtle","null","stimuli\EXEMPLAR\USED\Etoyplane2.jpg","","","","","Memory","false","null","","","",""
"","null","html-keyboard-response","153","2.0.0","228969","phy4ybvdja7","turtle","null","<div style=""font-size:60px; color: black;"">+</div>","","","","","","","","","","",""
"","null","image-keyboard-response","154","2.0.0","230972","phy4ybvdja7","turtle","null","stimuli\EXEMPLAR\USED\Eturtle2.jpg","","","","","Memory","false","null","","","",""
"","null","html-keyboard-response","155","2.0.0","231482","phy4ybvdja7","turtle","null","<div style=""font-size:60px; color: black;"">+</div>","","","","","","","","","","",""
"","null","image-keyboard-response","156","2.0.0","233486","phy4ybvdja7","turtle","null","stimuli\EXEMPLAR\USED\Ehotairballoon2.jpg","","","","","Memory","false","null","","","",""
"","null","html-keyboard-response","157","2.0.0","233989","phy4ybvdja7","turtle","null","<div style=""font-size:60px; color: black;"">+</div>","","","","","","","","","","",""
"","null","image-keyboard-response","158","2.0.0","235992","phy4ybvdja7","turtle","null","stimuli\EXEMPLAR\USED\Eframe1.jpg","","","","","Memory","false","null","","","",""
"","null","html-keyboard-response","159","2.0.0","236495","phy4ybvdja7","turtle","null","<div style=""font-size:60px; color: black;"">+</div>","","","","","","","","","","",""
"","null","image-keyboard-response","160","2.0.0","238500","phy4ybvdja7","turtle","null","stimuli\EXEMPLAR\USED\Ehorn2.jpg","","","","","Memory","false","null","","","",""
"","null","html-keyboard-response","161","2.0.0","239003","phy4ybvdja7","turtle","null","<div style=""font-size:60px; color: black;"">+</div>","","","","","","","","","","",""
"","614","image-keyboard-response","162","2.0.0","241006","phy4ybvdja7","turtle"," ","stimuli\EXEMPLAR\USED\Eturtle2.jpg","","","","","Memory","true","true","","","",""
"","null","html-keyboard-response","163","2.0.0","241509","phy4ybvdja7","turtle","null","<div style=""font-size:60px; color: green;"">+</div>","","","","","","","","","","",""
"","null","image-keyboard-response","164","2.0.0","243513","phy4ybvdja7","turtle","null","stimuli\STATE\USED\Sapplesgreenbasket1.jpg","","","","","Memory","false","null","","","",""
"","null","html-keyboard-response","165","2.0.0","244016","phy4ybvdja7","turtle","null","<div style=""font-size:60px; color: black;"">+</div>","","","","","","","","","","",""
"","null","image-keyboard-response","166","2.0.0","246020","phy4ybvdja7","turtle","null","stimuli\STATE\USED\Sbelt1.jpg","","","","","Memory","false","null","","","",""
"","null","html-keyboard-response","167","2.0.0","246522","phy4ybvdja7","turtle","null","<div style=""font-size:60px; color: black;"">+</div>","","","","","","","","","","",""
"","null","image-keyboard-response","168","2.0.0","248525","phy4ybvdja7","turtle","null","stimuli\STATE\USED\Sboxwhite2.jpg","","","","","Memory","false","null","","","",""
"","null","html-keyboard-response","169","2.0.0","249028","phy4ybvdja7","turtle","null","<div style=""font-size:60px; color: black;"">+</div>","","","","","","","","","","",""
"","null","image-keyboard-response","170","2.0.0","251032","phy4ybvdja7","turtle","null","stimuli\EXEMPLAR\USED\Echocolatebar1.jpg","","","","","Memory","false","null","","","",""
"","null","html-keyboard-response","171","2.0.0","251535","phy4ybvdja7","turtle","null","<div style=""font-size:60px; color: black;"">+</div>","","","","","","","","","","",""
"","null","image-keyboard-response","172","2.0.0","253538","phy4ybvdja7","turtle","null","stimuli\EXEMPLAR\USED\Ebonzai2.jpg","","","","","Memory","false","null","","","",""
"","null","html-keyboard-response","173","2.0.0","254041","phy4ybvdja7","turtle","null","<div style=""font-size:60px; color: black;"">+</div>","","","","","","","","","","",""
"","null","image-keyboard-response","174","2.0.0","256045","phy4ybvdja7","turtle","null","stimuli\STATE\USED\Sgrinder1.jpg","","","","","Memory","false","null","","","",""
"","null","html-keyboard-response","175","2.0.0","256548","phy4ybvdja7","turtle","null","<div style=""font-size:60px; color: black;"">+</div>","","","","","","","","","","",""
"","null","image-keyboard-response","176","2.0.0","258551","phy4ybvdja7","turtle","null","stimuli\EXEMPLAR\USED\Ebread1.jpg","","","","","Memory","false","null","","","",""
"","null","html-keyboard-response","177","2.0.0","259054","phy4ybvdja7","turtle","null","<div style=""font-size:60px; color: black;"">+</div>","","","","","","","","","","",""
"","null","image-keyboard-response","178","2.0.0","261057","phy4ybvdja7","turtle","null","stimuli\STATE\USED\Sbooks2.JPG","","","","","Memory","false","null","","","",""
"","null","html-keyboard-response","179","2.0.0","261560","phy4ybvdja7","turtle","null","<div style=""font-size:60px; color: black;"">+</div>","","","","","","","","","","",""
"","null","image-keyboard-response","180","2.0.0","263564","phy4ybvdja7","turtle","null","stimuli\STATE\USED\Sseats2.jpg","","","","","Memory","false","null","","","",""
"","null","html-keyboard-response","181","2.0.0","264067","phy4ybvdja7","turtle","null","<div style=""font-size:60px; color: black;"">+</div>","","","","","","","","","","",""
"","null","image-keyboard-response","182","2.0.0","266070","phy4ybvdja7","turtle","null","stimuli\STATE\USED\Shairbrush2.jpg","","","","","Memory","false","null","","","",""
"","null","html-keyboard-response","183","2.0.0","266573","phy4ybvdja7","turtle","null","<div style=""font-size:60px; color: black;"">+</div>","","","","","","","","","","",""
"","797","image-keyboard-response","184","2.0.0","268576","phy4ybvdja7","turtle"," ","stimuli\EXEMPLAR\USED\Ebread1.jpg","","","","","Memory","true","true","","","",""
"","null","html-keyboard-response","185","2.0.0","269079","phy4ybvdja7","turtle","null","<div style=""font-size:60px; color: green;"">+</div>","","","","","","","","","","",""
"","null","image-keyboard-response","186","2.0.0","271082","phy4ybvdja7","turtle","null","stimuli\STATE\USED\Spiggybank1.jpg","","","","","Memory","false","null","","","",""
"","null","html-keyboard-response","187","2.0.0","271585","phy4ybvdja7","turtle","null","<div style=""font-size:60px; color: black;"">+</div>","","","","","","","","","","",""
"","null","image-keyboard-response","188","2.0.0","273589","phy4ybvdja7","turtle","null","stimuli\EXEMPLAR\USED\Emuffin1.jpg","","","","","Memory","false","null","","","",""
"","null","html-keyboard-response","189","2.0.0","274092","phy4ybvdja7","turtle","null","<div style=""font-size:60px; color: black;"">+</div>","","","","","","","","","","",""
"","null","image-keyboard-response","190","2.0.0","276095","phy4ybvdja7","turtle","null","stimuli\EXEMPLAR\USED\Ecamera2.jpg","","","","","Memory","false","null","","","",""
"","null","html-keyboard-response","191","2.0.0","276598","phy4ybvdja7","turtle","null","<div style=""font-size:60px; color: black;"">+</div>","","","","","","","","","","",""
"","null","image-keyboard-response","192","2.0.0","278602","phy4ybvdja7","turtle","null","stimuli\STATE\USED\Saccordionsmall1.JPG","","","","","Memory","false","null","","","",""
"","null","html-keyboard-response","193","2.0.0","279105","phy4ybvdja7","turtle","null","<div style=""font-size:60px; color: black;"">+</div>","","","","","","","","","","",""
"","null","image-keyboard-response","194","2.0.0","281109","phy4ybvdja7","turtle","null","stimuli\EXEMPLAR\USED\Esantahat2.jpg","","","","","Memory","false","null","","","",""
"","null","html-keyboard-response","195","2.0.0","281612","phy4ybvdja7","turtle","null","<div style=""font-size:60px; color: black;"">+</div>","","","","","","","","","","",""
"","null","image-keyboard-response","196","2.0.0","283616","phy4ybvdja7","turtle","null","stimuli\STATE\USED\Speppers2.jpg","","","","","Memory","false","null","","","",""
"","null","html-keyboard-response","197","2.0.0","284119","phy4ybvdja7","turtle","null","<div style=""font-size:60px; color: black;"">+</div>","","","","","","","","","","",""
"","null","image-keyboard-response","198","2.0.0","286123","phy4ybvdja7","turtle","null","stimuli\EXEMPLAR\USED\Etractor2.jpg","","","","","Memory","false","null","","","",""
"","null","html-keyboard-response","199","2.0.0","286625","phy4ybvdja7","turtle","null","<div style=""font-size:60px; color: black;"">+</div>","","","","","","","","","","",""
"","null","image-keyboard-response","200","2.0.0","288629","phy4ybvdja7","turtle","null","stimuli\STATE\USED\Sschoolbag1.JPG","","","","","Memory","false","null","","","",""
"","null","html-keyboard-response","201","2.0.0","289132","phy4ybvdja7","turtle","null","<div style=""font-size:60px; color: black;"">+</div>","","","","","","","","","","",""
"","null","image-keyboard-response","202","2.0.0","291136","phy4ybvdja7","turtle","null","stimuli\EXEMPLAR\USED\Ebrick1.jpg","","","","","Memory","false","null","","","",""
"","null","html-keyboard-response","203","2.0.0","291639","phy4ybvdja7","turtle","null","<div style=""font-size:60px; color: black;"">+</div>","","","","","","","","","","",""
"","null","image-keyboard-response","204","2.0.0","293642","phy4ybvdja7","turtle","null","stimuli\EXEMPLAR\USED\Eguitar1.jpg","","","","","Memory","false","null","","","",""
"","null","html-keyboard-response","205","2.0.0","294145","phy4ybvdja7","turtle","null","<div style=""font-size:60px; color: black;"">+</div>","","","","","","","","","","",""
"","null","image-keyboard-response","206","2.0.0","296148","phy4ybvdja7","turtle","null","stimuli\STATE\USED\Sbabytoy1.JPG","","","","","Memory","false","null","","","",""
"","null","html-keyboard-response","207","2.0.0","296650","phy4ybvdja7","turtle","null","<div style=""font-size:60px; color: black;"">+</div>","","","","","","","","","","",""
"","827","image-keyboard-response","208","2.0.0","298653","phy4ybvdja7","turtle"," ","stimuli\STATE\USED\Sschoolbag1.JPG","","","","","Memory","true","true","","","",""
"","null","html-keyboard-response","209","2.0.0","299155","phy4ybvdja7","turtle","null","<div style=""font-size:60px; color: green;"">+</div>","","","","","","","","","","",""
"","1047","html-button-response","210","2.0.0","300204","phy4ybvdja7","turtle","0","Are you still there?","","","","","Attention Check","","","","","",""
"","null","image-keyboard-response","211","2.0.0","302208","phy4ybvdja7","turtle","null","stimuli\STATE\USED\Srhino1.jpg","","","","","Memory","false","null","","","",""
"","null","html-keyboard-response","212","2.0.0","302710","phy4ybvdja7","turtle","null","<div style=""font-size:60px; color: black;"">+</div>","","","","","","","","","","",""
"","null","image-keyboard-response","213","2.0.0","304713","phy4ybvdja7","turtle","null","stimuli\STATE\USED\Shandsign1.JPG","","","","","Memory","false","null","","","",""
"","null","html-keyboard-response","214","2.0.0","305216","phy4ybvdja7","turtle","null","<div style=""font-size:60px; color: black;"">+</div>","","","","","","","","","","",""
"","null","image-keyboard-response","215","2.0.0","307220","phy4ybvdja7","turtle","null","stimuli\EXEMPLAR\USED\Echopsticks1.jpg","","","","","Memory","false","null","","","",""
"","null","html-keyboard-response","216","2.0.0","307722","phy4ybvdja7","turtle","null","<div style=""font-size:60px; color: black;"">+</div>","","","","","","","","","","",""
"","null","image-keyboard-response","217","2.0.0","309726","phy4ybvdja7","turtle","null","stimuli\STATE\USED\Spolarbear2.jpg","","","","","Memory","false","null","","","",""
"","null","html-keyboard-response","218","2.0.0","310228","phy4ybvdja7","turtle","null","<div style=""font-size:60px; color: black;"">+</div>","","","","","","","","","","",""
"","null","image-keyboard-response","219","2.0.0","312231","phy4ybvdja7","turtle","null","stimuli\STATE\USED\Scooker1.jpg","","","","","Memory","false","null","","","",""
"","null","html-keyboard-response","220","2.0.0","312734","phy4ybvdja7","turtle","null","<div style=""font-size:60px; color: black;"">+</div>","","","","","","","","","","",""
"","548","image-keyboard-response","221","2.0.0","314737","phy4ybvdja7","turtle"," ","stimuli\STATE\USED\Shandsign1.JPG","","","","","Memory","true","true","","","",""
"","null","html-keyboard-response","222","2.0.0","315240","phy4ybvdja7","turtle","null","<div style=""font-size:60px; color: green;"">+</div>","","","","","","","","","","",""
"","null","image-keyboard-response","223","2.0.0","317244","phy4ybvdja7","turtle","null","stimuli\STATE\USED\Sclipboard2.jpg","","","","","Memory","false","null","","","",""
"","null","html-keyboard-response","224","2.0.0","317747","phy4ybvdja7","turtle","null","<div style=""font-size:60px; color: black;"">+</div>","","","","","","","","","","",""
"","null","image-keyboard-response","225","2.0.0","319750","phy4ybvdja7","turtle","null","stimuli\STATE\USED\Smetronome1.jpg","","","","","Memory","false","null","","","",""
"","null","html-keyboard-response","226","2.0.0","320253","phy4ybvdja7","turtle","null","<div style=""font-size:60px; color: black;"">+</div>","","","","","","","","","","",""
"","null","image-keyboard-response","227","2.0.0","322256","phy4ybvdja7","turtle","null","stimuli\STATE\USED\Siron2.jpg","","","","","Memory","false","null","","","",""
"","null","html-keyboard-response","228","2.0.0","322758","phy4ybvdja7","turtle","null","<div style=""font-size:60px; color: black;"">+</div>","","","","","","","","","","",""
"","null","image-keyboard-response","229","2.0.0","324762","phy4ybvdja7","turtle","null","stimuli\STATE\USED\Sbureau2.JPG","","","","","Memory","false","null","","","",""
"","null","html-keyboard-response","230","2.0.0","325263","phy4ybvdja7","turtle","null","<div style=""font-size:60px; color: black;"">+</div>","","","","","","","","","","",""
"","null","image-keyboard-response","231","2.0.0","327267","phy4ybvdja7","turtle","null","stimuli\STATE\USED\Slaptop2.JPG","","","","","Memory","false","null","","","",""
"","null","html-keyboard-response","232","2.0.0","327769","phy4ybvdja7","turtle","null","<div style=""font-size:60px; color: black;"">+</div>","","","","","","","","","","",""
"","null","image-keyboard-response","233","2.0.0","329772","phy4ybvdja7","turtle","null","stimuli\EXEMPLAR\USED\Ehanger2.jpg","","","","","Memory","false","null","","","",""
"","null","html-keyboard-response","234","2.0.0","330276","phy4ybvdja7","turtle","null","<div style=""font-size:60px; color: black;"">+</div>","","","","","","","","","","",""
"","null","image-keyboard-response","235","2.0.0","332279","phy4ybvdja7","turtle","null","stimuli\STATE\USED\Sstoplight1.jpg","","","","","Memory","false","null","","","",""
"","null","html-keyboard-response","236","2.0.0","332782","phy4ybvdja7","turtle","null","<div style=""font-size:60px; color: black;"">+</div>","","","","","","","","","","",""
"","null","image-keyboard-response","237","2.0.0","334786","phy4ybvdja7","turtle","null","stimuli\STATE\USED\Sphone1.JPG","","","","","Memory","false","null","","","",""
"","null","html-keyboard-response","238","2.0.0","335289","phy4ybvdja7","turtle","null","<div style=""font-size:60px; color: black;"">+</div>","","","","","","","","","","",""
"","604","image-keyboard-response","239","2.0.0","337293","phy4ybvdja7","turtle"," ","stimuli\STATE\USED\Slaptop2.JPG","","","","","Memory","true","true","","","",""
"","null","html-keyboard-response","240","2.0.0","337795","phy4ybvdja7","turtle","null","<div style=""font-size:60px; color: green;"">+</div>","","","","","","","","","","",""
"","null","image-keyboard-response","241","2.0.0","339799","phy4ybvdja7","turtle","null","stimuli\EXEMPLAR\USED\Eicecream1.jpg","","","","","Memory","false","null","","","",""
"","null","html-keyboard-response","242","2.0.0","340301","phy4ybvdja7","turtle","null","<div style=""font-size:60px; color: black;"">+</div>","","","","","","","","","","",""
"","null","image-keyboard-response","243","2.0.0","342305","phy4ybvdja7","turtle","null","stimuli\STATE\USED\Seggplant1.jpg","","","","","Memory","false","null","","","",""
"","null","html-keyboard-response","244","2.0.0","342808","phy4ybvdja7","turtle","null","<div style=""font-size:60px; color: black;"">+</div>","","","","","","","","","","",""
"","null","image-keyboard-response","245","2.0.0","344811","phy4ybvdja7","turtle","null","stimuli\STATE\USED\Shandshake2.JPG","","","","","Memory","false","null","","","",""
"","null","html-keyboard-response","246","2.0.0","345315","phy4ybvdja7","turtle","null","<div style=""font-size:60px; color: black;"">+</div>","","","","","","","","","","",""
"","null","image-keyboard-response","247","2.0.0","347318","phy4ybvdja7","turtle","null","stimuli\STATE\USED\Sgiftbox2.jpg","","","","","Memory","false","null","","","",""
"","null","html-keyboard-response","248","2.0.0","347821","phy4ybvdja7","turtle","null","<div style=""font-size:60px; color: black;"">+</div>","","","","","","","","","","",""
"","null","image-keyboard-response","249","2.0.0","349825","phy4ybvdja7","turtle","null","stimuli\STATE\USED\Sbook1.JPG","","","","","Memory","false","null","","","",""
"","null","html-keyboard-response","250","2.0.0","350327","phy4ybvdja7","turtle","null","<div style=""font-size:60px; color: black;"">+</div>","","","","","","","","","","",""
"","null","image-keyboard-response","251","2.0.0","352331","phy4ybvdja7","turtle","null","stimuli\STATE\USED\Spadlock1.jpg","","","","","Memory","false","null","","","",""
"","null","html-keyboard-response","252","2.0.0","352834","phy4ybvdja7","turtle","null","<div style=""font-size:60px; color: black;"">+</div>","","","","","","","","","","",""
"","656","image-keyboard-response","253","2.0.0","354837","phy4ybvdja7","turtle"," ","stimuli\STATE\USED\Shandshake2.JPG","","","","","Memory","true","true","","","",""
"","null","html-keyboard-response","254","2.0.0","355339","phy4ybvdja7","turtle","null","<div style=""font-size:60px; color: green;"">+</div>","","","","","","","","","","",""
"","null","image-keyboard-response","255","2.0.0","357342","phy4ybvdja7","turtle","null","stimuli\EXEMPLAR\USED\Ebicycle1.jpg","","","","","Memory","false","null","","","",""
"","null","html-keyboard-response","256","2.0.0","357846","phy4ybvdja7","turtle","null","<div style=""font-size:60px; color: black;"">+</div>","","","","","","","","","","",""
"","618","image-keyboard-response","257","2.0.0","359849","phy4ybvdja7","turtle"," ","stimuli\STATE\USED\Saccordion2.jpg","","","","","Memory","false","false","","","",""
"","null","html-keyboard-response","258","2.0.0","360352","phy4ybvdja7","turtle","null","<div style=""font-size:60px; color: red;"">+</div>","","","","","","","","","","",""
"","null","image-keyboard-response","259","2.0.0","362355","phy4ybvdja7","turtle","null","stimuli\EXEMPLAR\USED\Esunglasses2.jpg","","","","","Memory","false","null","","","",""
"","null","html-keyboard-response","260","2.0.0","362858","phy4ybvdja7","turtle","null","<div style=""font-size:60px; color: black;"">+</div>","","","","","","","","","","",""
"","null","image-keyboard-response","261","2.0.0","364862","phy4ybvdja7","turtle","null","stimuli\STATE\USED\Swaffleiron1.jpg","","","","","Memory","false","null","","","",""
"","null","html-keyboard-response","262","2.0.0","365364","phy4ybvdja7","turtle","null","<div style=""font-size:60px; color: black;"">+</div>","","","","","","","","","","",""
"","null","image-keyboard-response","263","2.0.0","367367","phy4ybvdja7","turtle","null","stimuli\EXEMPLAR\USED\Elog1.jpg","","","","","Memory","false","null","","","",""
"","null","html-keyboard-response","264","2.0.0","367870","phy4ybvdja7","turtle","null","<div style=""font-size:60px; color: black;"">+</div>","","","","","","","","","","",""
"","null","image-keyboard-response","265","2.0.0","369874","phy4ybvdja7","turtle","null","stimuli\STATE\USED\Slockbox2.jpg","","","","","Memory","false","null","","","",""
"","null","html-keyboard-response","266","2.0.0","370377","phy4ybvdja7","turtle","null","<div style=""font-size:60px; color: black;"">+</div>","","","","","","","","","","",""
"","null","image-keyboard-response","267","2.0.0","372380","phy4ybvdja7","turtle","null","stimuli\EXEMPLAR\USED\Espraybottle2.jpg","","","","","Memory","false","null","","","",""
"","null","html-keyboard-response","268","2.0.0","372883","phy4ybvdja7","turtle","null","<div style=""font-size:60px; color: black;"">+</div>","","","","","","","","","","",""
"","null","image-keyboard-response","269","2.0.0","374886","phy4ybvdja7","turtle","null","stimuli\EXEMPLAR\USED\Eremote2.jpg","","","","","Memory","false","null","","","",""
"","null","html-keyboard-response","270","2.0.0","375389","phy4ybvdja7","turtle","null","<div style=""font-size:60px; color: black;"">+</div>","","","","","","","","","","",""
"","617","image-keyboard-response","271","2.0.0","377393","phy4ybvdja7","turtle"," ","stimuli\EXEMPLAR\USED\Elog1.jpg","","","","","Memory","true","true","","","",""
"","null","html-keyboard-response","272","2.0.0","377896","phy4ybvdja7","turtle","null","<div style=""font-size:60px; color: green;"">+</div>","","","","","","","","","","",""
"","null","image-keyboard-response","273","2.0.0","379899","phy4ybvdja7","turtle","null","stimuli\EXEMPLAR\USED\Escroll1.jpg","","","","","Memory","false","null","","","",""
"","null","html-keyboard-response","274","2.0.0","380402","phy4ybvdja7","turtle","null","<div style=""font-size:60px; color: black;"">+</div>","","","","","","","","","","",""
"","null","image-keyboard-response","275","2.0.0","382405","phy4ybvdja7","turtle","null","stimuli\STATE\USED\Sdryer2.jpg","","","","","Memory","false","null","","","",""
"","null","html-keyboard-response","276","2.0.0","382908","phy4ybvdja7","turtle","null","<div style=""font-size:60px; color: black;"">+</div>","","","","","","","","","","",""
"","null","image-keyboard-response","277","2.0.0","384912","phy4ybvdja7","turtle","null","stimuli\EXEMPLAR\USED\Ewineglass1.jpg","","","","","Memory","false","null","","","",""
"","null","html-keyboard-response","278","2.0.0","385415","phy4ybvdja7","turtle","null","<div style=""font-size:60px; color: black;"">+</div>","","","","","","","","","","",""
"","null","image-keyboard-response","279","2.0.0","387418","phy4ybvdja7","turtle","null","stimuli\EXEMPLAR\USED\Ecalculator1.jpg","","","","","Memory","false","null","","","",""
"","null","html-keyboard-response","280","2.0.0","387921","phy4ybvdja7","turtle","null","<div style=""font-size:60px; color: black;"">+</div>","","","","","","","","","","",""
"","null","image-keyboard-response","281","2.0.0","389924","phy4ybvdja7","turtle","null","stimuli\STATE\USED\Sseatbelt2.jpg","","","","","Memory","false","null","","","",""
"","null","html-keyboard-response","282","2.0.0","390426","phy4ybvdja7","turtle","null","<div style=""font-size:60px; color: black;"">+</div>","","","","","","","","","","",""
"","null","image-keyboard-response","283","2.0.0","392430","phy4ybvdja7","turtle","null","stimuli\STATE\USED\Sdrum1.jpg","","","","","Memory","false","null","","","",""
"","null","html-keyboard-response","284","2.0.0","392933","phy4ybvdja7","turtle","null","<div style=""font-size:60px; color: black;"">+</div>","","","","","","","","","","",""
"","669","image-keyboard-response","285","2.0.0","394937","phy4ybvdja7","turtle"," ","stimuli\EXEMPLAR\USED\Ewineglass1.jpg","","","","","Memory","true","true","","","",""
"","null","html-keyboard-response","286","2.0.0","395439","phy4ybvdja7","turtle","null","<div style=""font-size:60px; color: green;"">+</div>","","","","","","","","","","",""
"","null","image-keyboard-response","287","2.0.0","397442","phy4ybvdja7","turtle","null","stimuli\STATE\USED\Smedicaltape2.jpg","","","","","Memory","false","null","","","",""
"","null","html-keyboard-response","288","2.0.0","397945","phy4ybvdja7","turtle","null","<div style=""font-size:60px; color: black;"">+</div>","","","","","","","","","","",""
"","null","image-keyboard-response","289","2.0.0","399948","phy4ybvdja7","turtle","null","stimuli\STATE\USED\Sbarnmailbox2.jpg","","","","","Memory","false","null","","","",""
"","null","html-keyboard-response","290","2.0.0","400451","phy4ybvdja7","turtle","null","<div style=""font-size:60px; color: black;"">+</div>","","","","","","","","","","",""
"","null","image-keyboard-response","291","2.0.0","402455","phy4ybvdja7","turtle","null","stimuli\EXEMPLAR\USED\Elei2.jpg","","","","","Memory","false","null","","","",""
"","null","html-keyboard-response","292","2.0.0","402958","phy4ybvdja7","turtle","null","<div style=""font-size:60px; color: black;"">+</div>","","","","","","","","","","",""
"","null","image-keyboard-response","293","2.0.0","404962","phy4ybvdja7","turtle","null","stimuli\EXEMPLAR\USED\Eremover1.jpg","","","","","Memory","false","null","","","",""
"","null","html-keyboard-response","294","2.0.0","405464","phy4ybvdja7","turtle","null","<div style=""font-size:60px; color: black;"">+</div>","","","","","","","","","","",""
"","744","image-keyboard-response","295","2.0.0","407467","phy4ybvdja7","turtle"," ","stimuli\STATE\USED\Smedicaltape2.jpg","","","","","Memory","true","true","","","",""
"","null","html-keyboard-response","296","2.0.0","407970","phy4ybvdja7","turtle","null","<div style=""font-size:60px; color: green;"">+</div>","","","","","","","","","","",""
"","null","image-keyboard-response","297","2.0.0","409973","phy4ybvdja7","turtle","null","stimuli\EXEMPLAR\USED\Enozzle2.jpg","","","","","Memory","false","null","","","",""
"","null","html-keyboard-response","298","2.0.0","410475","phy4ybvdja7","turtle","null","<div style=""font-size:60px; color: black;"">+</div>","","","","","","","","","","",""
"","null","image-keyboard-response","299","2.0.0","412478","phy4ybvdja7","turtle","null","stimuli\STATE\USED\Stypewriter2.jpg","","","","","Memory","false","null","","","",""
"","null","html-keyboard-response","300","2.0.0","412981","phy4ybvdja7","turtle","null","<div style=""font-size:60px; color: black;"">+</div>","","","","","","","","","","",""
"","null","image-keyboard-response","301","2.0.0","414983","phy4ybvdja7","turtle","null","stimuli\EXEMPLAR\USED\Ewheelchair1.jpg","","","","","Memory","false","null","","","",""
"","null","html-keyboard-response","302","2.0.0","415486","phy4ybvdja7","turtle","null","<div style=""font-size:60px; color: black;"">+</div>","","","","","","","","","","",""
"","null","image-keyboard-response","303","2.0.0","417489","phy4ybvdja7","turtle","null","stimuli\EXEMPLAR\USED\Erabbit1.jpg","","","","","Memory","false","null","","","",""
"","null","html-keyboard-response","304","2.0.0","417991","phy4ybvdja7","turtle","null","<div style=""font-size:60px; color: black;"">+</div>","","","","","","","","","","",""
"","656","image-keyboard-response","305","2.0.0","419994","phy4ybvdja7","turtle"," ","stimuli\EXEMPLAR\USED\Enozzle2.jpg","","","","","Memory","true","true","","","",""
"","null","html-keyboard-response","306","2.0.0","420496","phy4ybvdja7","turtle","null","<div style=""font-size:60px; color: green;"">+</div>","","","","","","","","","","",""
"","null","image-keyboard-response","307","2.0.0","422500","phy4ybvdja7","turtle","null","stimuli\EXEMPLAR\USED\Emuffler2.jpg","","","","","Memory","false","null","","","",""
"","null","html-keyboard-response","308","2.0.0","423003","phy4ybvdja7","turtle","null","<div style=""font-size:60px; color: black;"">+</div>","","","","","","","","","","",""
"","null","image-keyboard-response","309","2.0.0","425006","phy4ybvdja7","turtle","null","stimuli\STATE\USED\Spestle2.jpg","","","","","Memory","false","null","","","",""
"","null","html-keyboard-response","310","2.0.0","425509","phy4ybvdja7","turtle","null","<div style=""font-size:60px; color: black;"">+</div>","","","","","","","","","","",""
"","null","image-keyboard-response","311","2.0.0","427513","phy4ybvdja7","turtle","null","stimuli\EXEMPLAR\USED\Efolder1.jpg","","","","","Memory","false","null","","","",""
"","null","html-keyboard-response","312","2.0.0","428016","phy4ybvdja7","turtle","null","<div style=""font-size:60px; color: black;"">+</div>","","","","","","","","","","",""
"","3009","html-button-response","313","2.0.0","431027","phy4ybvdja7","turtle","0","Are you still there?","","","","","Attention Check","","","","","",""
"","null","image-keyboard-response","314","2.0.0","433030","phy4ybvdja7","turtle","null","stimuli\STATE\USED\Sdonut2.jpg","","","","","Memory","false","null","","","",""
"","null","html-keyboard-response","315","2.0.0","433532","phy4ybvdja7","turtle","null","<div style=""font-size:60px; color: black;"">+</div>","","","","","","","","","","",""
"","null","image-keyboard-response","316","2.0.0","435536","phy4ybvdja7","turtle","null","stimuli\EXEMPLAR\USED\Emuffler2.jpg","","","","","Memory","true","null","","","",""
"","null","html-keyboard-response","317","2.0.0","436039","phy4ybvdja7","turtle","null","<div style=""font-size:60px; color: black;"">+</div>","","","","","","","","","","",""
"","null","image-keyboard-response","318","2.0.0","438042","phy4ybvdja7","turtle","null","stimuli\EXEMPLAR\USED\Emoney2.jpg","","","","","Memory","false","null","","","",""
"","null","html-keyboard-response","319","2.0.0","438544","phy4ybvdja7","turtle","null","<div style=""font-size:60px; color: black;"">+</div>","","","","","","","","","","",""
"","null","image-keyboard-response","320","2.0.0","440547","phy4ybvdja7","turtle","null","stimuli\EXEMPLAR\USED\Ehoe1.jpg","","","","","Memory","false","null","","","",""
"","null","html-keyboard-response","321","2.0.0","441050","phy4ybvdja7","turtle","null","<div style=""font-size:60px; color: black;"">+</div>","","","","","","","","","","",""
"","null","image-keyboard-response","322","2.0.0","443053","phy4ybvdja7","turtle","null","stimuli\EXEMPLAR\USED\Eglobe1.jpg","","","","","Memory","false","null","","","",""
"","null","html-keyboard-response","323","2.0.0","443556","phy4ybvdja7","turtle","null","<div style=""font-size:60px; color: black;"">+</div>","","","","","","","","","","",""
"","null","image-keyboard-response","324","2.0.0","445560","phy4ybvdja7","turtle","null","stimuli\STATE\USED\Sapplesredbasket1.JPG","","","","","Memory","false","null","","","",""
"","null","html-keyboard-response","325","2.0.0","446063","phy4ybvdja7","turtle","null","<div style=""font-size:60px; color: black;"">+</div>","","","","","","","","","","",""
"","1057","image-keyboard-response","326","2.0.0","448066","phy4ybvdja7","turtle"," ","stimuli\EXEMPLAR\USED\Epiano2.jpg","","","","","Memory","false","false","","","",""
"","null","html-keyboard-response","327","2.0.0","448568","phy4ybvdja7","turtle","null","<div style=""font-size:60px; color: red;"">+</div>","","","","","","","","","","",""
"","1405","image-keyboard-response","328","2.0.0","450573","phy4ybvdja7","turtle"," ","stimuli\EXEMPLAR\USED\Ehoe1.jpg","","","","","Memory","true","true","","","",""
"","null","html-keyboard-response","329","2.0.0","451076","phy4ybvdja7","turtle","null","<div style=""font-size:60px; color: green;"">+</div>","","","","","","","","","","",""
"","null","image-keyboard-response","330","2.0.0","453080","phy4ybvdja7","turtle","null","stimuli\STATE\USED\Sscissors1.JPG","","","","","Memory","false","null","","","",""
"","null","html-keyboard-response","331","2.0.0","453582","phy4ybvdja7","turtle","null","<div style=""font-size:60px; color: black;"">+</div>","","","","","","","","","","",""
"","null","image-keyboard-response","332","2.0.0","455586","phy4ybvdja7","turtle","null","stimuli\EXEMPLAR\USED\Ecake1.jpg","","","","","Memory","false","null","","","",""
"","null","html-keyboard-response","333","2.0.0","456089","phy4ybvdja7","turtle","null","<div style=""font-size:60px; color: black;"">+</div>","","","","","","","","","","",""
"","null","image-keyboard-response","334","2.0.0","458092","phy4ybvdja7","turtle","null","stimuli\EXEMPLAR\USED\Estarfish1.jpg","","","","","Memory","false","null","","","",""
"","null","html-keyboard-response","335","2.0.0","458594","phy4ybvdja7","turtle","null","<div style=""font-size:60px; color: black;"">+</div>","","","","","","","","","","",""
"","null","image-keyboard-response","336","2.0.0","460598","phy4ybvdja7","turtle","null","stimuli\EXEMPLAR\USED\Etongs2.jpg","","","","","Memory","false","null","","","",""
"","null","html-keyboard-response","337","2.0.0","461100","phy4ybvdja7","turtle","null","<div style=""font-size:60px; color: black;"">+</div>","","","","","","","","","","",""
"","696","image-keyboard-response","338","2.0.0","463103","phy4ybvdja7","turtle"," ","stimuli\STATE\USED\Sscissors1.JPG","","","","","Memory","true","true","","","",""
"","null","html-keyboard-response","339","2.0.0","463606","phy4ybvdja7","turtle","null","<div style=""font-size:60px; color: green;"">+</div>","","","","","","","","","","",""
"","null","image-keyboard-response","340","2.0.0","465609","phy4ybvdja7","turtle","null","stimuli\STATE\USED\Scateringtray2.jpg","","","","","Memory","false","null","","","",""
"","null","html-keyboard-response","341","2.0.0","466111","phy4ybvdja7","turtle","null","<div style=""font-size:60px; color: black;"">+</div>","","","","","","","","","","",""
"","null","image-keyboard-response","342","2.0.0","468114","phy4ybvdja7","turtle","null","stimuli\STATE\USED\Snapkins2.jpg","","","","","Memory","false","null","","","",""
"","null","html-keyboard-response","343","2.0.0","468617","phy4ybvdja7","turtle","null","<div style=""font-size:60px; color: black;"">+</div>","","","","","","","","","","",""
"","null","image-keyboard-response","344","2.0.0","470621","phy4ybvdja7","turtle","null","stimuli\EXEMPLAR\USED\Ehelmet1.jpg","","","","","Memory","false","null","","","",""
"","null","html-keyboard-response","345","2.0.0","471122","phy4ybvdja7","turtle","null","<div style=""font-size:60px; color: black;"">+</div>","","","","","","","","","","",""
"","null","image-keyboard-response","346","2.0.0","473126","phy4ybvdja7","turtle","null","stimuli\STATE\USED\Sumbrella1.jpg","","","","","Memory","false","null","","","",""
"","null","html-keyboard-response","347","2.0.0","473629","phy4ybvdja7","turtle","null","<div style=""font-size:60px; color: black;"">+</div>","","","","","","","","","","",""
"","5776","html-keyboard-response","348","2.0.0","479407","phy4ybvdja7","turtle"," ","
          <p>In the next part of this experiment, you will see 2 images. Please select the image that you recall from the image stream.</p>
          <p>You will also rate your confidence for each image you recall.</p>
          <p>Press any key to start.</p>
        ","","","","","","","","","","",""
"","1709","html-button-response","349","2.0.0","481118","phy4ybvdja7","turtle","0","Which of these items did you see before?","","","","","Test","","true","[""stimuli\\STATE\\USED\\Stypewriter2.jpg"",""stimuli\\STATE\\USED\\Stypewriter1.jpg""]","stimuli\STATE\USED\Stypewriter2.jpg","stimuli\STATE\USED\Stypewriter2.jpg",""
"","3597","image-slider-response","350","2.0.0","484719","phy4ybvdja7","turtle","4","stimuli\STATE\USED\Stypewriter2.jpg","","","","","","","","","","","3"
"","1816","html-button-response","351","2.0.0","486537","phy4ybvdja7","turtle","0","Which of these items did you see before?","","","","","Test","","false","[""stimuli\\STATE\\USED\\Sbrushes1.jpg"",""stimuli\\STATE\\USED\\Sbrushes2.jpg""]","stimuli\STATE\USED\Sbrushes2.jpg","stimuli\STATE\USED\Sbrushes1.jpg",""
"","3205","image-slider-response","352","2.0.0","489745","phy4ybvdja7","turtle","2","stimuli\STATE\USED\Sbrushes1.jpg","","","","","","","","","","","3"
"","1364","html-button-response","353","2.0.0","491112","phy4ybvdja7","turtle","0","Which of these items did you see before?","","","","","Test","","true","[""stimuli\\STATE\\USED\\Slaptop2.JPG"",""stimuli\\STATE\\USED\\Slaptop1.JPG""]","stimuli\STATE\USED\Slaptop2.JPG","stimuli\STATE\USED\Slaptop2.JPG",""
"","1645","image-slider-response","354","2.0.0","492760","phy4ybvdja7","turtle","4","stimuli\STATE\USED\Slaptop2.JPG","","","","","","","","","","","3"
"","1509","html-button-response","355","2.0.0","494271","phy4ybvdja7","turtle","0","Which of these items did you see before?","","","","","Test","","true","[""stimuli\\EXEMPLAR\\USED\\Etractor2.jpg"",""stimuli\\EXEMPLAR\\USED\\Etractor1.jpg""]","stimuli\EXEMPLAR\USED\Etractor2.jpg","stimuli\EXEMPLAR\USED\Etractor2.jpg",""
"","1990","image-slider-response","356","2.0.0","496264","phy4ybvdja7","turtle","4","stimuli\EXEMPLAR\USED\Etractor2.jpg","","","","","","","","","","","3"
"","1090","html-button-response","357","2.0.0","497356","phy4ybvdja7","turtle","1","Which of these items did you see before?","","","","","Test","","true","[""stimuli\\EXEMPLAR\\USED\\Ehanger1.jpg"",""stimuli\\EXEMPLAR\\USED\\Ehanger2.jpg""]","stimuli\EXEMPLAR\USED\Ehanger2.jpg","stimuli\EXEMPLAR\USED\Ehanger2.jpg",""
"","1902","image-slider-response","358","2.0.0","499262","phy4ybvdja7","turtle","5","stimuli\EXEMPLAR\USED\Ehanger2.jpg","","","","","","","","","","","3"
"","2402","html-button-response","359","2.0.0","501665","phy4ybvdja7","turtle","1","Which of these items did you see before?","","","","","Test","","false","[""stimuli\\STATE\\USED\\Sscales2.jpg"",""stimuli\\STATE\\USED\\Sscales1.jpg""]","stimuli\STATE\USED\Sscales2.jpg","stimuli\STATE\USED\Sscales1.jpg",""
"","2656","image-slider-response","360","2.0.0","504325","phy4ybvdja7","turtle","2","stimuli\STATE\USED\Sscales1.jpg","","","","","","","","","","","3"
"","1445","html-button-response","361","2.0.0","505772","phy4ybvdja7","turtle","0","Which of these items did you see before?","","","","","Test","","true","[""stimuli\\EXEMPLAR\\USED\\Espraybottle2.jpg"",""stimuli\\EXEMPLAR\\USED\\Espraybottle1.jpg""]","stimuli\EXEMPLAR\USED\Espraybottle2.jpg","stimuli\EXEMPLAR\USED\Espraybottle2.jpg",""
"","1533","image-slider-response","362","2.0.0","507308","phy4ybvdja7","turtle","4","stimuli\EXEMPLAR\USED\Espraybottle2.jpg","","","","","","","","","","","3"
"","1204","html-button-response","363","2.0.0","508514","phy4ybvdja7","turtle","0","Which of these items did you see before?","","","","","Test","","true","[""stimuli\\STATE\\USED\\Sflask1.jpg"",""stimuli\\STATE\\USED\\Sflask2.jpg""]","stimuli\STATE\USED\Sflask1.jpg","stimuli\STATE\USED\Sflask1.jpg",""
"","1829","image-slider-response","364","2.0.0","510346","phy4ybvdja7","turtle","5","stimuli\STATE\USED\Sflask1.jpg","","","","","","","","","","","3"
"","931","html-button-response","365","2.0.0","511278","phy4ybvdja7","turtle","1","Which of these items did you see before?","","","","","Test","","true","[""stimuli\\EXEMPLAR\\USED\\Elei1.jpg"",""stimuli\\EXEMPLAR\\USED\\Elei2.jpg""]","stimuli\EXEMPLAR\USED\Elei2.jpg","stimuli\EXEMPLAR\USED\Elei2.jpg",""
"","1958","image-slider-response","366","2.0.0","513240","phy4ybvdja7","turtle","5","stimuli\EXEMPLAR\USED\Elei2.jpg","","","","","","","","","","","3"
"","1083","html-button-response","367","2.0.0","514324","phy4ybvdja7","turtle","1","Which of these items did you see before?","","","","","Test","","true","[""stimuli\\EXEMPLAR\\USED\\Ecake2.jpg"",""stimuli\\EXEMPLAR\\USED\\Ecake1.jpg""]","stimuli\EXEMPLAR\USED\Ecake1.jpg","stimuli\EXEMPLAR\USED\Ecake1.jpg",""
"","2739","image-slider-response","368","2.0.0","517066","phy4ybvdja7","turtle","5","stimuli\EXEMPLAR\USED\Ecake1.jpg","","","","","","","","","","","3"
"","1163","html-button-response","369","2.0.0","518231","phy4ybvdja7","turtle","0","Which of these items did you see before?","","","","","Test","","true","[""stimuli\\EXEMPLAR\\USED\\Etoykeys1.jpg"",""stimuli\\EXEMPLAR\\USED\\Etoykeys2.JPG""]","stimuli\EXEMPLAR\USED\Etoykeys1.jpg","stimuli\EXEMPLAR\USED\Etoykeys1.jpg",""
"","1798","image-slider-response","370","2.0.0","520032","phy4ybvdja7","turtle","5","stimuli\EXEMPLAR\USED\Etoykeys1.jpg","","","","","","","","","","","3"
"","1203","html-button-response","371","2.0.0","521237","phy4ybvdja7","turtle","1","Which of these items did you see before?","","","","","Test","","true","[""stimuli\\EXEMPLAR\\USED\\Echopsticks2.jpg"",""stimuli\\EXEMPLAR\\USED\\Echopsticks1.jpg""]","stimuli\EXEMPLAR\USED\Echopsticks1.jpg","stimuli\EXEMPLAR\USED\Echopsticks1.jpg",""
"","1580","image-slider-response","372","2.0.0","522820","phy4ybvdja7","turtle","5","stimuli\EXEMPLAR\USED\Echopsticks1.jpg","","","","","","","","","","","3"
"","973","html-button-response","373","2.0.0","523794","phy4ybvdja7","turtle","1","Which of these items did you see before?","","","","","Test","","true","[""stimuli\\EXEMPLAR\\USED\\Eswimsuit2.jpg"",""stimuli\\EXEMPLAR\\USED\\Eswimsuit1.jpg""]","stimuli\EXEMPLAR\USED\Eswimsuit1.jpg","stimuli\EXEMPLAR\USED\Eswimsuit1.jpg",""
"","1676","image-slider-response","374","2.0.0","525473","phy4ybvdja7","turtle","5","stimuli\EXEMPLAR\USED\Eswimsuit1.jpg","","","","","","","","","","","3"
"","2377","html-button-response","375","2.0.0","527852","phy4ybvdja7","turtle","1","Which of these items did you see before?","","","","","Test","","true","[""stimuli\\STATE\\USED\\Sbureau1.JPG"",""stimuli\\STATE\\USED\\Sbureau2.JPG""]","stimuli\STATE\USED\Sbureau2.JPG","stimuli\STATE\USED\Sbureau2.JPG",""
"","2199","image-slider-response","376","2.0.0","530054","phy4ybvdja7","turtle","2","stimuli\STATE\USED\Sbureau2.JPG","","","","","","","","","","","3"
"","1621","html-button-response","377","2.0.0","531677","phy4ybvdja7","turtle","0","Which of these items did you see before?","","","","","Test","","true","[""stimuli\\EXEMPLAR\\USED\\Ehorn2.jpg"",""stimuli\\EXEMPLAR\\USED\\Ehorn1.jpg""]","stimuli\EXEMPLAR\USED\Ehorn2.jpg","stimuli\EXEMPLAR\USED\Ehorn2.jpg",""
"","2103","image-slider-response","378","2.0.0","533783","phy4ybvdja7","turtle","2","stimuli\EXEMPLAR\USED\Ehorn2.jpg","","","","","","","","","","","3"
"","2312","html-button-response","379","2.0.0","536097","phy4ybvdja7","turtle","0","Which of these items did you see before?","","","","","Test","","true","[""stimuli\\STATE\\USED\\Sscanner2.JPG"",""stimuli\\STATE\\USED\\Sscanner1.JPG""]","stimuli\STATE\USED\Sscanner2.JPG","stimuli\STATE\USED\Sscanner2.JPG",""
"","2924","image-slider-response","380","2.0.0","539024","phy4ybvdja7","turtle","3","stimuli\STATE\USED\Sscanner2.JPG","","","","","","","","","","","3"
"","1331","html-button-response","381","2.0.0","540358","phy4ybvdja7","turtle","1","Which of these items did you see before?","","","","","Test","","true","[""stimuli\\STATE\\USED\\Scoffeemaker1.JPG"",""stimuli\\STATE\\USED\\Scoffeemaker2.JPG""]","stimuli\STATE\USED\Scoffeemaker2.JPG","stimuli\STATE\USED\Scoffeemaker2.JPG",""
"","1661","image-slider-response","382","2.0.0","542022","phy4ybvdja7","turtle","4","stimuli\STATE\USED\Scoffeemaker2.JPG","","","","","","","","","","","3"
"","1299","html-button-response","383","2.0.0","543323","phy4ybvdja7","turtle","0","Which of these items did you see before?","","","","","Test","","true","[""stimuli\\STATE\\USED\\Sgiftbag1.jpg"",""stimuli\\STATE\\USED\\Sgiftbag2.jpg""]","stimuli\STATE\USED\Sgiftbag1.jpg","stimuli\STATE\USED\Sgiftbag1.jpg",""
"","1565","image-slider-response","384","2.0.0","544891","phy4ybvdja7","turtle","5","stimuli\STATE\USED\Sgiftbag1.jpg","","","","","","","","","","","3"
"","1622","html-button-response","385","2.0.0","546514","phy4ybvdja7","turtle","0","Which of these items did you see before?","","","","","Test","","true","[""stimuli\\EXEMPLAR\\USED\\Estapler1.jpg"",""stimuli\\EXEMPLAR\\USED\\Estapler2.jpg""]","stimuli\EXEMPLAR\USED\Estapler1.jpg","stimuli\EXEMPLAR\USED\Estapler1.jpg",""
"","2569","image-slider-response","386","2.0.0","549086","phy4ybvdja7","turtle","3","stimuli\EXEMPLAR\USED\Estapler1.jpg","","","","","","","","","","","3"
"","1557","html-button-response","387","2.0.0","550645","phy4ybvdja7","turtle","1","Which of these items did you see before?","","","","","Test","","false","[""stimuli\\STATE\\USED\\Slockbox2.jpg"",""stimuli\\STATE\\USED\\Slockbox1.jpg""]","stimuli\STATE\USED\Slockbox2.jpg","stimuli\STATE\USED\Slockbox1.jpg",""
"","2150","image-slider-response","388","2.0.0","552798","phy4ybvdja7","turtle","2","stimuli\STATE\USED\Slockbox1.jpg","","","","","","","","","","","3"
"","1670","html-button-response","389","2.0.0","554471","phy4ybvdja7","turtle","0","Which of these items did you see before?","","","","","Test","","false","[""stimuli\\EXEMPLAR\\USED\\Eguitar2.jpg"",""stimuli\\EXEMPLAR\\USED\\Eguitar1.jpg""]","stimuli\EXEMPLAR\USED\Eguitar1.jpg","stimuli\EXEMPLAR\USED\Eguitar2.jpg",""
"","2665","image-slider-response","390","2.0.0","557139","phy4ybvdja7","turtle","2","stimuli\EXEMPLAR\USED\Eguitar2.jpg","","","","","","","","","","","3"
"","1138","html-button-response","391","2.0.0","558279","phy4ybvdja7","turtle","0","Which of these items did you see before?","","","","","Test","","true","[""stimuli\\EXEMPLAR\\USED\\Ehoe1.jpg"",""stimuli\\EXEMPLAR\\USED\\Ehoe2.jpg""]","stimuli\EXEMPLAR\USED\Ehoe1.jpg","stimuli\EXEMPLAR\USED\Ehoe1.jpg",""
"","4418","image-slider-response","392","2.0.0","562700","phy4ybvdja7","turtle","4","stimuli\EXEMPLAR\USED\Ehoe1.jpg","","","","","","","","","","","3"
"","2023","html-button-response","393","2.0.0","564725","phy4ybvdja7","turtle","0","Which of these items did you see before?","","","","","Test","","true","[""stimuli\\STATE\\USED\\Spestle2.jpg"",""stimuli\\STATE\\USED\\Spestle1.jpg""]","stimuli\STATE\USED\Spestle2.jpg","stimuli\STATE\USED\Spestle2.jpg",""
"","1719","image-slider-response","394","2.0.0","566447","phy4ybvdja7","turtle","5","stimuli\STATE\USED\Spestle2.jpg","","","","","","","","","","","3"
"","1387","html-button-response","395","2.0.0","567835","phy4ybvdja7","turtle","0","Which of these items did you see before?","","","","","Test","","false","[""stimuli\\STATE\\USED\\Smetronome2.JPG"",""stimuli\\STATE\\USED\\Smetronome1.jpg""]","stimuli\STATE\USED\Smetronome1.jpg","stimuli\STATE\USED\Smetronome2.JPG",""
"","1894","image-slider-response","396","2.0.0","569732","phy4ybvdja7","turtle","2","stimuli\STATE\USED\Smetronome2.JPG","","","","","","","","","","","3"
"","1325","html-button-response","397","2.0.0","571059","phy4ybvdja7","turtle","0","Which of these items did you see before?","","","","","Test","","true","[""stimuli\\EXEMPLAR\\USED\\Eteapot2.JPG"",""stimuli\\EXEMPLAR\\USED\\Eteapot1.JPG""]","stimuli\EXEMPLAR\USED\Eteapot2.JPG","stimuli\EXEMPLAR\USED\Eteapot2.JPG",""
"","2110","image-slider-response","398","2.0.0","573173","phy4ybvdja7","turtle","5","stimuli\EXEMPLAR\USED\Eteapot2.JPG","","","","","","","","","","","3"
"","1019","html-button-response","399","2.0.0","574193","phy4ybvdja7","turtle","1","Which of these items did you see before?","","","","","Test","","true","[""stimuli\\EXEMPLAR\\USED\\Etoyhand2.jpg"",""stimuli\\EXEMPLAR\\USED\\Etoyhand1.jpg""]","stimuli\EXEMPLAR\USED\Etoyhand1.jpg","stimuli\EXEMPLAR\USED\Etoyhand1.jpg",""
"","2391","image-slider-response","400","2.0.0","576587","phy4ybvdja7","turtle","5","stimuli\EXEMPLAR\USED\Etoyhand1.jpg","","","","","","","","","","","3"
"","1317","html-button-response","401","2.0.0","577906","phy4ybvdja7","turtle","0","Which of these items did you see before?","","","","","Test","","true","[""stimuli\\STATE\\USED\\Spadlock1.jpg"",""stimuli\\STATE\\USED\\Spadlock2.jpg""]","stimuli\STATE\USED\Spadlock1.jpg","stimuli\STATE\USED\Spadlock1.jpg",""
"","2866","image-slider-response","402","2.0.0","580775","phy4ybvdja7","turtle","4","stimuli\STATE\USED\Spadlock1.jpg","","","","","","","","","","","3"
"","1252","html-button-response","403","2.0.0","582029","phy4ybvdja7","turtle","0","Which of these items did you see before?","","","","","Test","","true","[""stimuli\\EXEMPLAR\\USED\\Emedal1.jpg"",""stimuli\\EXEMPLAR\\USED\\Emedal2.jpg""]","stimuli\EXEMPLAR\USED\Emedal1.jpg","stimuli\EXEMPLAR\USED\Emedal1.jpg",""
"","3051","image-slider-response","404","2.0.0","585083","phy4ybvdja7","turtle","2","stimuli\EXEMPLAR\USED\Emedal1.jpg","","","","","","","","","","","3"
"","1605","html-button-response","405","2.0.0","586690","phy4ybvdja7","turtle","0","Which of these items did you see before?","","","","","Test","","true","[""stimuli\\EXEMPLAR\\USED\\Erazor2.jpg"",""stimuli\\EXEMPLAR\\USED\\Erazor1.jpg""]","stimuli\EXEMPLAR\USED\Erazor2.jpg","stimuli\EXEMPLAR\USED\Erazor2.jpg",""
"","2232","image-slider-response","406","2.0.0","588925","phy4ybvdja7","turtle","2","stimuli\EXEMPLAR\USED\Erazor2.jpg","","","","","","","","","","","3"
"","1034","html-button-response","407","2.0.0","589962","phy4ybvdja7","turtle","0","Which of these items did you see before?","","","","","Test","","true","[""stimuli\\STATE\\USED\\Sphone1.JPG"",""stimuli\\STATE\\USED\\Sphone2.JPG""]","stimuli\STATE\USED\Sphone1.JPG","stimuli\STATE\USED\Sphone1.JPG",""
"","1363","image-slider-response","408","2.0.0","591327","phy4ybvdja7","turtle","2","stimuli\STATE\USED\Sphone1.JPG","","","","","","","","","","","3"
"","1751","html-button-response","409","2.0.0","593080","phy4ybvdja7","turtle","1","Which of these items did you see before?","","","","","Test","","true","[""stimuli\\EXEMPLAR\\USED\\Etoywrench2.jpg"",""stimuli\\EXEMPLAR\\USED\\Etoywrench1.jpg""]","stimuli\EXEMPLAR\USED\Etoywrench1.jpg","stimuli\EXEMPLAR\USED\Etoywrench1.jpg",""
"","2360","image-slider-response","410","2.0.0","595443","phy4ybvdja7","turtle","4","stimuli\EXEMPLAR\USED\Etoywrench1.jpg","","","","","","","","","","","3"
"","1251","html-button-response","411","2.0.0","596696","phy4ybvdja7","turtle","1","Which of these items did you see before?","","","","","Test","","true","[""stimuli\\STATE\\USED\\Sdonut1.jpg"",""stimuli\\STATE\\USED\\Sdonut2.jpg""]","stimuli\STATE\USED\Sdonut2.jpg","stimuli\STATE\USED\Sdonut2.jpg",""
"","4313","image-slider-response","412","2.0.0","601012","phy4ybvdja7","turtle","5","stimuli\STATE\USED\Sdonut2.jpg","","","","","","","","","","","3"
"","1363","html-button-response","413","2.0.0","602378","phy4ybvdja7","turtle","1","Which of these items did you see before?","","","","","Test","","false","[""stimuli\\EXEMPLAR\\USED\\Ebicycle1.jpg"",""stimuli\\EXEMPLAR\\USED\\Ebicycle2.jpg""]","stimuli\EXEMPLAR\USED\Ebicycle1.jpg","stimuli\EXEMPLAR\USED\Ebicycle2.jpg",""
"","1403","image-slider-response","414","2.0.0","603784","phy4ybvdja7","turtle","2","stimuli\EXEMPLAR\USED\Ebicycle2.jpg","","","","","","","","","","","3"
"","1203","html-button-response","415","2.0.0","604990","phy4ybvdja7","turtle","0","Which of these items did you see before?","","","","","Test","","false","[""stimuli\\STATE\\USED\\Srhino2.jpg"",""stimuli\\STATE\\USED\\Srhino1.jpg""]","stimuli\STATE\USED\Srhino1.jpg","stimuli\STATE\USED\Srhino2.jpg",""
"","1998","image-slider-response","416","2.0.0","606991","phy4ybvdja7","turtle","2","stimuli\STATE\USED\Srhino2.jpg","","","","","","","","","","","3"
"","2433","html-button-response","417","2.0.0","609425","phy4ybvdja7","turtle","1","Which of these items did you see before?","","","","","Test","","true","[""stimuli\\STATE\\USED\\Sbelt2.jpg"",""stimuli\\STATE\\USED\\Sbelt1.jpg""]","stimuli\STATE\USED\Sbelt1.jpg","stimuli\STATE\USED\Sbelt1.jpg",""
"","1975","image-slider-response","418","2.0.0","611403","phy4ybvdja7","turtle","2","stimuli\STATE\USED\Sbelt1.jpg","","","","","","","","","","","3"
"","1653","html-button-response","419","2.0.0","613058","phy4ybvdja7","turtle","1","Which of these items did you see before?","","","","","Test","","true","[""stimuli\\EXEMPLAR\\USED\\Echeeses1.jpg"",""stimuli\\EXEMPLAR\\USED\\Echeeses2.jpg""]","stimuli\EXEMPLAR\USED\Echeeses2.jpg","stimuli\EXEMPLAR\USED\Echeeses2.jpg",""
"","1717","image-slider-response","420","2.0.0","614778","phy4ybvdja7","turtle","5","stimuli\EXEMPLAR\USED\Echeeses2.jpg","","","","","","","","","","","3"
"","1163","html-button-response","421","2.0.0","615944","phy4ybvdja7","turtle","0","Which of these items did you see before?","","","","","Test","","true","[""stimuli\\EXEMPLAR\\USED\\Echocolatebar1.jpg"",""stimuli\\EXEMPLAR\\USED\\Echocolatebar2.jpg""]","stimuli\EXEMPLAR\USED\Echocolatebar1.jpg","stimuli\EXEMPLAR\USED\Echocolatebar1.jpg",""
"","1950","image-slider-response","422","2.0.0","617896","phy4ybvdja7","turtle","5","stimuli\EXEMPLAR\USED\Echocolatebar1.jpg","","","","","","","","","","","3"
"","1605","html-button-response","423","2.0.0","619504","phy4ybvdja7","turtle","1","Which of these items did you see before?","","","","","Test","","true","[""stimuli\\EXEMPLAR\\USED\\Ehelmet2.jpg"",""stimuli\\EXEMPLAR\\USED\\Ehelmet1.jpg""]","stimuli\EXEMPLAR\USED\Ehelmet1.jpg","stimuli\EXEMPLAR\USED\Ehelmet1.jpg",""
"","2167","image-slider-response","424","2.0.0","621674","phy4ybvdja7","turtle","2","stimuli\EXEMPLAR\USED\Ehelmet1.jpg","","","","","","","","","","","3"
"","1662","html-button-response","425","2.0.0","623337","phy4ybvdja7","turtle","1","Which of these items did you see before?","","","","","Test","","true","[""stimuli\\STATE\\USED\\Smedicaltape1.jpg"",""stimuli\\STATE\\USED\\Smedicaltape2.jpg""]","stimuli\STATE\USED\Smedicaltape2.jpg","stimuli\STATE\USED\Smedicaltape2.jpg",""
"","1781","image-slider-response","426","2.0.0","625121","phy4ybvdja7","turtle","5","stimuli\STATE\USED\Smedicaltape2.jpg","","","","","","","","","","","3"
"","1027","html-button-response","427","2.0.0","626150","phy4ybvdja7","turtle","0","Which of these items did you see before?","","","","","Test","","true","[""stimuli\\EXEMPLAR\\USED\\Estarfish1.jpg"",""stimuli\\EXEMPLAR\\USED\\Estarfish2.jpg""]","stimuli\EXEMPLAR\USED\Estarfish1.jpg","stimuli\EXEMPLAR\USED\Estarfish1.jpg",""
"","2254","image-slider-response","428","2.0.0","628407","phy4ybvdja7","turtle","5","stimuli\EXEMPLAR\USED\Estarfish1.jpg","","","","","","","","","","","3"
"","1012","html-button-response","429","2.0.0","629421","phy4ybvdja7","turtle","1","Which of these items did you see before?","","","","","Test","","true","[""stimuli\\STATE\\USED\\Speppers1.jpg"",""stimuli\\STATE\\USED\\Speppers2.jpg""]","stimuli\STATE\USED\Speppers2.jpg","stimuli\STATE\USED\Speppers2.jpg",""
"","1862","image-slider-response","430","2.0.0","631286","phy4ybvdja7","turtle","4","stimuli\STATE\USED\Speppers2.jpg","","","","","","","","","","","3"
"","929","html-button-response","431","2.0.0","632217","phy4ybvdja7","turtle","0","Which of these items did you see before?","","","","","Test","","true","[""stimuli\\EXEMPLAR\\USED\\Esunglasses2.jpg"",""stimuli\\EXEMPLAR\\USED\\Esunglasses1.jpg""]","stimuli\EXEMPLAR\USED\Esunglasses2.jpg","stimuli\EXEMPLAR\USED\Esunglasses2.jpg",""
"","2095","image-slider-response","432","2.0.0","634315","phy4ybvdja7","turtle","5","stimuli\EXEMPLAR\USED\Esunglasses2.jpg","","","","","","","","","","","3"
"","1284","html-button-response","433","2.0.0","635601","phy4ybvdja7","turtle","1","Which of these items did you see before?","","","","","Test","","true","[""stimuli\\STATE\\USED\\Sseats1.jpg"",""stimuli\\STATE\\USED\\Sseats2.jpg""]","stimuli\STATE\USED\Sseats2.jpg","stimuli\STATE\USED\Sseats2.jpg",""
"","1966","image-slider-response","434","2.0.0","637570","phy4ybvdja7","turtle","1","stimuli\STATE\USED\Sseats2.jpg","","","","","","","","","","","3"
"","1267","html-button-response","435","2.0.0","638840","phy4ybvdja7","turtle","1","Which of these items did you see before?","","","","","Test","","false","[""stimuli\\STATE\\USED\\Spotpan1.JPG"",""stimuli\\STATE\\USED\\Spotpan2.JPG""]","stimuli\STATE\USED\Spotpan1.JPG","stimuli\STATE\USED\Spotpan2.JPG",""
"","1523","image-slider-response","436","2.0.0","640365","phy4ybvdja7","turtle","1","stimuli\STATE\USED\Spotpan2.JPG","","","","","","","","","","","3"
"","1317","html-button-response","437","2.0.0","641684","phy4ybvdja7","turtle","0","Which of these items did you see before?","","","","","Test","","true","[""stimuli\\STATE\\USED\\Sclipboard2.jpg"",""stimuli\\STATE\\USED\\Sclipboard1.jpg""]","stimuli\STATE\USED\Sclipboard2.jpg","stimuli\STATE\USED\Sclipboard2.jpg",""
"","1974","image-slider-response","438","2.0.0","643661","phy4ybvdja7","turtle","2","stimuli\STATE\USED\Sclipboard2.jpg","","","","","","","","","","","3"
"","1421","html-button-response","439","2.0.0","645084","phy4ybvdja7","turtle","1","Which of these items did you see before?","","","","","Test","","true","[""stimuli\\STATE\\USED\\Sdishes1.JPG"",""stimuli\\STATE\\USED\\Sdishes2.JPG""]","stimuli\STATE\USED\Sdishes2.JPG","stimuli\STATE\USED\Sdishes2.JPG",""
"","1475","image-slider-response","440","2.0.0","646562","phy4ybvdja7","turtle","2","stimuli\STATE\USED\Sdishes2.JPG","","","","","","","","","","","3"
"","1613","html-button-response","441","2.0.0","648177","phy4ybvdja7","turtle","1","Which of these items did you see before?","","","","","Test","","true","[""stimuli\\STATE\\USED\\Sboxwhite1.jpg"",""stimuli\\STATE\\USED\\Sboxwhite2.jpg""]","stimuli\STATE\USED\Sboxwhite2.jpg","stimuli\STATE\USED\Sboxwhite2.jpg",""
"","1484","image-slider-response","442","2.0.0","649665","phy4ybvdja7","turtle","4","stimuli\STATE\USED\Sboxwhite2.jpg","","","","","","","","","","","3"
"","1099","html-button-response","443","2.0.0","650766","phy4ybvdja7","turtle","0","Which of these items did you see before?","","","","","Test","","true","[""stimuli\\EXEMPLAR\\USED\\Emoney2.jpg"",""stimuli\\EXEMPLAR\\USED\\Emoney1.jpg""]","stimuli\EXEMPLAR\USED\Emoney2.jpg","stimuli\EXEMPLAR\USED\Emoney2.jpg",""
"","2207","image-slider-response","444","2.0.0","652976","phy4ybvdja7","turtle","5","stimuli\EXEMPLAR\USED\Emoney2.jpg","","","","","","","","","","","3"
"","1139","html-button-response","445","2.0.0","654117","phy4ybvdja7","turtle","0","Which of these items did you see before?","","","","","Test","","true","[""stimuli\\EXEMPLAR\\USED\\Ekayak2.jpg"",""stimuli\\EXEMPLAR\\USED\\Ekayak1.jpg""]","stimuli\EXEMPLAR\USED\Ekayak2.jpg","stimuli\EXEMPLAR\USED\Ekayak2.jpg",""
"","3436","image-slider-response","446","2.0.0","657556","phy4ybvdja7","turtle","2","stimuli\EXEMPLAR\USED\Ekayak2.jpg","","","","","","","","","","","3"
"","1002","html-button-response","447","2.0.0","658560","phy4ybvdja7","turtle","0","Which of these items did you see before?","","","","","Test","","true","[""stimuli\\EXEMPLAR\\USED\\Esuitcase1.jpg"",""stimuli\\EXEMPLAR\\USED\\Esuitcase2.jpg""]","stimuli\EXEMPLAR\USED\Esuitcase1.jpg","stimuli\EXEMPLAR\USED\Esuitcase1.jpg",""
"","2240","image-slider-response","448","2.0.0","660804","phy4ybvdja7","turtle","1","stimuli\EXEMPLAR\USED\Esuitcase1.jpg","","","","","","","","","","","3"
"","39171","survey-text","449","2.0.0","699985","phy4ybvdja7","turtle","{""experiment_purpose"":""testing our short term memory"",""Q1"":""color, orientation, things that were significant in my life i remembered"",""technical_issues"":""no""}","","","","","","","","","","","",""
