"success","rt","trial_type","trial_index","plugin_version","time_elapsed","random_id","participant","response","stimulus","timeout","failed_images","failed_audio","failed_video","trial_phase","repeated","correct","choice_images","correct_image","choice","slider_start"
"true","870125","fullscreen","0","2.0.0","871104","pjw2f4uz82k","falcon","","","","","","","","","","","","",""
"","4728","survey-text","1","2.0.0","875836","pjw2f4uz82k","falcon","{""participant_id"":""falcon""}","","","","","","","","","","","",""
"","2616","html-keyboard-response","2","2.0.0","878453","pjw2f4uz82k","falcon"," ","<p>Welcome to the Massive Memory Experiment. Press any key to move on. </p>","","","","","","","","","","",""
"","24554","html-keyboard-response","3","2.0.0","903008","pjw2f4uz82k","falcon"," ","
      <div style='width:900px;margin: auto;'><p>In the first section you will see a stream of images, with fixation crosses in between each image.</p>
      <p>Each image will remain on screen for 2 seconds. Your job is to detect images that you have seen before within the experiment. Whenever you see an image that you have seen previously <b>at any point in the stream of images</b>, press the spacebar.</p>
      <p>We will let you know if you have correctly or falsely clicked the spacebar on an image by changing the color of the fixation cross.</p>
      <p>If you press the spacebar correctly (the image really did appear earlier), the fixation cross will turn green. If you pressed the spacebar incorrectly, the fixation cross will turn red.</p>
      <p>Please watch carefully to detect the images that show up again!</p>
      <p>Press any key to start.</p></div>
    ","","","","","","","","","","",""
"true","","preload","4","2.0.0","904036","pjw2f4uz82k","falcon","","","false","[]","[]","[]","","","","","","",""
"","null","image-keyboard-response","5","2.0.0","906038","pjw2f4uz82k","falcon","null","stimuli\EXEMPLAR\USED\Eladder2.jpg","","","","","Memory","false","null","","","",""
"","null","html-keyboard-response","6","2.0.0","906542","pjw2f4uz82k","falcon","null","<div style=""font-size:60px; color: black;"">+</div>","","","","","","","","","","",""
"","null","image-keyboard-response","7","2.0.0","908546","pjw2f4uz82k","falcon","null","stimuli\EXEMPLAR\USED\Ehelmet1.jpg","","","","","Memory","false","null","","","",""
"","null","html-keyboard-response","8","2.0.0","909049","pjw2f4uz82k","falcon","null","<div style=""font-size:60px; color: black;"">+</div>","","","","","","","","","","",""
"","null","image-keyboard-response","9","2.0.0","911052","pjw2f4uz82k","falcon","null","stimuli\EXEMPLAR\USED\Etoyplane2.jpg","","","","","Memory","false","null","","","",""
"","null","html-keyboard-response","10","2.0.0","911555","pjw2f4uz82k","falcon","null","<div style=""font-size:60px; color: black;"">+</div>","","","","","","","","","","",""
"","null","image-keyboard-response","11","2.0.0","913559","pjw2f4uz82k","falcon","null","stimuli\EXEMPLAR\USED\Enozzle2.jpg","","","","","Memory","false","null","","","",""
"","null","html-keyboard-response","12","2.0.0","914062","pjw2f4uz82k","falcon","null","<div style=""font-size:60px; color: black;"">+</div>","","","","","","","","","","",""
"","null","image-keyboard-response","13","2.0.0","916066","pjw2f4uz82k","falcon","null","stimuli\EXEMPLAR\USED\Ehorn2.jpg","","","","","Memory","false","null","","","",""
"","null","html-keyboard-response","14","2.0.0","916570","pjw2f4uz82k","falcon","null","<div style=""font-size:60px; color: black;"">+</div>","","","","","","","","","","",""
"","null","image-keyboard-response","15","2.0.0","918574","pjw2f4uz82k","falcon","null","stimuli\EXEMPLAR\USED\Ehelmet1.jpg","","","","","Memory","true","null","","","",""
"","null","html-keyboard-response","16","2.0.0","919077","pjw2f4uz82k","falcon","null","<div style=""font-size:60px; color: black;"">+</div>","","","","","","","","","","",""
"","null","image-keyboard-response","17","2.0.0","921081","pjw2f4uz82k","falcon","null","stimuli\EXEMPLAR\USED\Ebracelet1.jpg","","","","","Memory","false","null","","","",""
"","null","html-keyboard-response","18","2.0.0","921583","pjw2f4uz82k","falcon","null","<div style=""font-size:60px; color: black;"">+</div>","","","","","","","","","","",""
"","null","image-keyboard-response","19","2.0.0","923587","pjw2f4uz82k","falcon","null","stimuli\STATE\USED\Shandmirror2.jpg","","","","","Memory","false","null","","","",""
"","null","html-keyboard-response","20","2.0.0","924090","pjw2f4uz82k","falcon","null","<div style=""font-size:60px; color: black;"">+</div>","","","","","","","","","","",""
"","null","image-keyboard-response","21","2.0.0","926094","pjw2f4uz82k","falcon","null","stimuli\STATE\USED\Spatiotable1.jpg","","","","","Memory","false","null","","","",""
"","null","html-keyboard-response","22","2.0.0","926597","pjw2f4uz82k","falcon","null","<div style=""font-size:60px; color: black;"">+</div>","","","","","","","","","","",""
"","null","image-keyboard-response","23","2.0.0","928601","pjw2f4uz82k","falcon","null","stimuli\STATE\USED\Sdrum2.jpg","","","","","Memory","false","null","","","",""
"","null","html-keyboard-response","24","2.0.0","929105","pjw2f4uz82k","falcon","null","<div style=""font-size:60px; color: black;"">+</div>","","","","","","","","","","",""
"","null","image-keyboard-response","25","2.0.0","931108","pjw2f4uz82k","falcon","null","stimuli\STATE\USED\Sbrie2.JPG","","","","","Memory","false","null","","","",""
"","null","html-keyboard-response","26","2.0.0","931611","pjw2f4uz82k","falcon","null","<div style=""font-size:60px; color: black;"">+</div>","","","","","","","","","","",""
"","null","image-keyboard-response","27","2.0.0","933614","pjw2f4uz82k","falcon","null","stimuli\EXEMPLAR\USED\Ewheelchair1.jpg","","","","","Memory","false","null","","","",""
"","null","html-keyboard-response","28","2.0.0","934118","pjw2f4uz82k","falcon","null","<div style=""font-size:60px; color: black;"">+</div>","","","","","","","","","","",""
"","729","image-keyboard-response","29","2.0.0","936122","pjw2f4uz82k","falcon"," ","stimuli\STATE\USED\Spatiotable1.jpg","","","","","Memory","true","true","","","",""
"","null","html-keyboard-response","30","2.0.0","936625","pjw2f4uz82k","falcon","null","<div style=""font-size:60px; color: green;"">+</div>","","","","","","","","","","",""
"","null","image-keyboard-response","31","2.0.0","938628","pjw2f4uz82k","falcon","null","stimuli\EXEMPLAR\USED\Emuffin2.jpg","","","","","Memory","false","null","","","",""
"","null","html-keyboard-response","32","2.0.0","939137","pjw2f4uz82k","falcon","null","<div style=""font-size:60px; color: black;"">+</div>","","","","","","","","","","",""
"","null","image-keyboard-response","33","2.0.0","941141","pjw2f4uz82k","falcon","null","stimuli\STATE\USED\Sseatbelt1.jpg","","","","","Memory","false","null","","","",""
"","null","html-keyboard-response","34","2.0.0","941644","pjw2f4uz82k","falcon","null","<div style=""font-size:60px; color: black;"">+</div>","","","","","","","","","","",""
"","null","image-keyboard-response","35","2.0.0","943648","pjw2f4uz82k","falcon","null","stimuli\EXEMPLAR\USED\Econe1.jpg","","","","","Memory","false","null","","","",""
"","null","html-keyboard-response","36","2.0.0","944150","pjw2f4uz82k","falcon","null","<div style=""font-size:60px; color: black;"">+</div>","","","","","","","","","","",""
"","null","image-keyboard-response","37","2.0.0","946154","pjw2f4uz82k","falcon","null","stimuli\STATE\USED\Scateringtray1.jpg","","","","","Memory","false","null","","","",""
"","null","html-keyboard-response","38","2.0.0","946658","pjw2f4uz82k","falcon","null","<div style=""font-size:60px; color: black;"">+</div>","","","","","","","","","","",""
"","null","image-keyboard-response","39","2.0.0","948661","pjw2f4uz82k","falcon","null","stimuli\STATE\USED\Sboxwhite1.jpg","","","","","Memory","false","null","","","",""
"","null","html-keyboard-response","40","2.0.0","949164","pjw2f4uz82k","falcon","null","<div style=""font-size:60px; color: black;"">+</div>","","","","","","","","","","",""
"","null","image-keyboard-response","41","2.0.0","951169","pjw2f4uz82k","falcon","null","stimuli\STATE\USED\Sgiftbox1.jpg","","","","","Memory","false","null","","","",""
"","null","html-keyboard-response","42","2.0.0","951672","pjw2f4uz82k","falcon","null","<div style=""font-size:60px; color: black;"">+</div>","","","","","","","","","","",""
"","811","image-keyboard-response","43","2.0.0","953675","pjw2f4uz82k","falcon"," ","stimuli\EXEMPLAR\USED\Econe1.jpg","","","","","Memory","true","true","","","",""
"","null","html-keyboard-response","44","2.0.0","954179","pjw2f4uz82k","falcon","null","<div style=""font-size:60px; color: green;"">+</div>","","","","","","","","","","",""
"","null","image-keyboard-response","45","2.0.0","956182","pjw2f4uz82k","falcon","null","stimuli\EXEMPLAR\USED\Ebrick1.jpg","","","","","Memory","false","null","","","",""
"","null","html-keyboard-response","46","2.0.0","956685","pjw2f4uz82k","falcon","null","<div style=""font-size:60px; color: black;"">+</div>","","","","","","","","","","",""
"","null","image-keyboard-response","47","2.0.0","958688","pjw2f4uz82k","falcon","null","stimuli\EXEMPLAR\USED\Ebell1.jpg","","","","","Memory","false","null","","","",""
"","null","html-keyboard-response","48","2.0.0","959190","pjw2f4uz82k","falcon","null","<div style=""font-size:60px; color: black;"">+</div>","","","","","","","","","","",""
"","null","image-keyboard-response","49","2.0.0","961193","pjw2f4uz82k","falcon","null","stimuli\STATE\USED\Sbrushes2.jpg","","","","","Memory","false","null","","","",""
"","null","html-keyboard-response","50","2.0.0","961695","pjw2f4uz82k","falcon","null","<div style=""font-size:60px; color: black;"">+</div>","","","","","","","","","","",""
"","null","image-keyboard-response","51","2.0.0","963698","pjw2f4uz82k","falcon","null","stimuli\EXEMPLAR\USED\Egame2.jpg","","","","","Memory","false","null","","","",""
"","null","html-keyboard-response","52","2.0.0","964201","pjw2f4uz82k","falcon","null","<div style=""font-size:60px; color: black;"">+</div>","","","","","","","","","","",""
"","null","image-keyboard-response","53","2.0.0","966205","pjw2f4uz82k","falcon","null","stimuli\STATE\USED\Sskull2.jpg","","","","","Memory","false","null","","","",""
"","null","html-keyboard-response","54","2.0.0","966708","pjw2f4uz82k","falcon","null","<div style=""font-size:60px; color: black;"">+</div>","","","","","","","","","","",""
"","null","image-keyboard-response","55","2.0.0","968711","pjw2f4uz82k","falcon","null","stimuli\EXEMPLAR\USED\Ebinoculars1.jpg","","","","","Memory","false","null","","","",""
"","null","html-keyboard-response","56","2.0.0","969214","pjw2f4uz82k","falcon","null","<div style=""font-size:60px; color: black;"">+</div>","","","","","","","","","","",""
"","1041","image-keyboard-response","57","2.0.0","971218","pjw2f4uz82k","falcon"," ","stimuli\STATE\USED\Sbrushes2.jpg","","","","","Memory","true","true","","","",""
"","null","html-keyboard-response","58","2.0.0","971720","pjw2f4uz82k","falcon","null","<div style=""font-size:60px; color: green;"">+</div>","","","","","","","","","","",""
"","null","image-keyboard-response","59","2.0.0","973723","pjw2f4uz82k","falcon","null","stimuli\STATE\USED\Sjuiceglass2.JPG","","","","","Memory","false","null","","","",""
"","null","html-keyboard-response","60","2.0.0","974227","pjw2f4uz82k","falcon","null","<div style=""font-size:60px; color: black;"">+</div>","","","","","","","","","","",""
"","null","image-keyboard-response","61","2.0.0","976230","pjw2f4uz82k","falcon","null","stimuli\EXEMPLAR\USED\Esuitcase1.jpg","","","","","Memory","false","null","","","",""
"","null","html-keyboard-response","62","2.0.0","976733","pjw2f4uz82k","falcon","null","<div style=""font-size:60px; color: black;"">+</div>","","","","","","","","","","",""
"","null","image-keyboard-response","63","2.0.0","978736","pjw2f4uz82k","falcon","null","stimuli\EXEMPLAR\USED\Eturtle1.jpg","","","","","Memory","false","null","","","",""
"","null","html-keyboard-response","64","2.0.0","979239","pjw2f4uz82k","falcon","null","<div style=""font-size:60px; color: black;"">+</div>","","","","","","","","","","",""
"","null","image-keyboard-response","65","2.0.0","981243","pjw2f4uz82k","falcon","null","stimuli\EXEMPLAR\USED\Echeeses1.jpg","","","","","Memory","false","null","","","",""
"","null","html-keyboard-response","66","2.0.0","981746","pjw2f4uz82k","falcon","null","<div style=""font-size:60px; color: black;"">+</div>","","","","","","","","","","",""
"","null","image-keyboard-response","67","2.0.0","983749","pjw2f4uz82k","falcon","null","stimuli\STATE\USED\Stypewriter1.jpg","","","","","Memory","false","null","","","",""
"","null","html-keyboard-response","68","2.0.0","984251","pjw2f4uz82k","falcon","null","<div style=""font-size:60px; color: black;"">+</div>","","","","","","","","","","",""
"","null","image-keyboard-response","69","2.0.0","986254","pjw2f4uz82k","falcon","null","stimuli\EXEMPLAR\USED\Espraybottle2.jpg","","","","","Memory","false","null","","","",""
"","null","html-keyboard-response","70","2.0.0","986758","pjw2f4uz82k","falcon","null","<div style=""font-size:60px; color: black;"">+</div>","","","","","","","","","","",""
"","null","image-keyboard-response","71","2.0.0","988761","pjw2f4uz82k","falcon","null","stimuli\EXEMPLAR\USED\Erazor2.jpg","","","","","Memory","false","null","","","",""
"","null","html-keyboard-response","72","2.0.0","989264","pjw2f4uz82k","falcon","null","<div style=""font-size:60px; color: black;"">+</div>","","","","","","","","","","",""
"","null","image-keyboard-response","73","2.0.0","991267","pjw2f4uz82k","falcon","null","stimuli\EXEMPLAR\USED\Eballoon2.jpg","","","","","Memory","false","null","","","",""
"","null","html-keyboard-response","74","2.0.0","991770","pjw2f4uz82k","falcon","null","<div style=""font-size:60px; color: black;"">+</div>","","","","","","","","","","",""
"","null","image-keyboard-response","75","2.0.0","993774","pjw2f4uz82k","falcon","null","stimuli\EXEMPLAR\USED\Ehotairballoon1.jpg","","","","","Memory","false","null","","","",""
"","null","html-keyboard-response","76","2.0.0","994276","pjw2f4uz82k","falcon","null","<div style=""font-size:60px; color: black;"">+</div>","","","","","","","","","","",""
"","null","image-keyboard-response","77","2.0.0","996280","pjw2f4uz82k","falcon","null","stimuli\STATE\USED\Scontainer2.JPG","","","","","Memory","false","null","","","",""
"","null","html-keyboard-response","78","2.0.0","996783","pjw2f4uz82k","falcon","null","<div style=""font-size:60px; color: black;"">+</div>","","","","","","","","","","",""
"","null","image-keyboard-response","79","2.0.0","998786","pjw2f4uz82k","falcon","null","stimuli\EXEMPLAR\USED\Eremote1.jpg","","","","","Memory","false","null","","","",""
"","null","html-keyboard-response","80","2.0.0","999289","pjw2f4uz82k","falcon","null","<div style=""font-size:60px; color: black;"">+</div>","","","","","","","","","","",""
"","1115","image-keyboard-response","81","2.0.0","1001293","pjw2f4uz82k","falcon"," ","stimuli\EXEMPLAR\USED\Eballoon2.jpg","","","","","Memory","true","true","","","",""
"","null","html-keyboard-response","82","2.0.0","1001796","pjw2f4uz82k","falcon","null","<div style=""font-size:60px; color: green;"">+</div>","","","","","","","","","","",""
"","null","image-keyboard-response","83","2.0.0","1003800","pjw2f4uz82k","falcon","null","stimuli\EXEMPLAR\USED\Eplate1.jpg","","","","","Memory","false","null","","","",""
"","null","html-keyboard-response","84","2.0.0","1004303","pjw2f4uz82k","falcon","null","<div style=""font-size:60px; color: black;"">+</div>","","","","","","","","","","",""
"","null","image-keyboard-response","85","2.0.0","1006307","pjw2f4uz82k","falcon","null","stimuli\EXEMPLAR\USED\Emedal2.jpg","","","","","Memory","false","null","","","",""
"","null","html-keyboard-response","86","2.0.0","1006809","pjw2f4uz82k","falcon","null","<div style=""font-size:60px; color: black;"">+</div>","","","","","","","","","","",""
"","null","image-keyboard-response","87","2.0.0","1008813","pjw2f4uz82k","falcon","null","stimuli\STATE\USED\Sdishes2.JPG","","","","","Memory","false","null","","","",""
"","null","html-keyboard-response","88","2.0.0","1009316","pjw2f4uz82k","falcon","null","<div style=""font-size:60px; color: black;"">+</div>","","","","","","","","","","",""
"","null","image-keyboard-response","89","2.0.0","1011319","pjw2f4uz82k","falcon","null","stimuli\EXEMPLAR\USED\Eholepunch1.jpg","","","","","Memory","false","null","","","",""
"","null","html-keyboard-response","90","2.0.0","1011822","pjw2f4uz82k","falcon","null","<div style=""font-size:60px; color: black;"">+</div>","","","","","","","","","","",""
"","null","image-keyboard-response","91","2.0.0","1013825","pjw2f4uz82k","falcon","null","stimuli\STATE\USED\Sdresser2.jpg","","","","","Memory","false","null","","","",""
"","null","html-keyboard-response","92","2.0.0","1014328","pjw2f4uz82k","falcon","null","<div style=""font-size:60px; color: black;"">+</div>","","","","","","","","","","",""
"","null","image-keyboard-response","93","2.0.0","1016331","pjw2f4uz82k","falcon","null","stimuli\EXEMPLAR\USED\Ehanger1.jpg","","","","","Memory","false","null","","","",""
"","null","html-keyboard-response","94","2.0.0","1016834","pjw2f4uz82k","falcon","null","<div style=""font-size:60px; color: black;"">+</div>","","","","","","","","","","",""
"","null","image-keyboard-response","95","2.0.0","1018837","pjw2f4uz82k","falcon","null","stimuli\STATE\USED\Smetronome2.JPG","","","","","Memory","false","null","","","",""
"","null","html-keyboard-response","96","2.0.0","1019340","pjw2f4uz82k","falcon","null","<div style=""font-size:60px; color: black;"">+</div>","","","","","","","","","","",""
"","null","image-keyboard-response","97","2.0.0","1021343","pjw2f4uz82k","falcon","null","stimuli\EXEMPLAR\USED\Eelectricbass2.jpg","","","","","Memory","false","null","","","",""
"","null","html-keyboard-response","98","2.0.0","1021846","pjw2f4uz82k","falcon","null","<div style=""font-size:60px; color: black;"">+</div>","","","","","","","","","","",""
"","null","image-keyboard-response","99","2.0.0","1023850","pjw2f4uz82k","falcon","null","stimuli\STATE\USED\Sdryer1.jpg","","","","","Memory","false","null","","","",""
"","null","html-keyboard-response","100","2.0.0","1024352","pjw2f4uz82k","falcon","null","<div style=""font-size:60px; color: black;"">+</div>","","","","","","","","","","",""
"","1098","image-keyboard-response","101","2.0.0","1026356","pjw2f4uz82k","falcon"," ","stimuli\EXEMPLAR\USED\Ehanger1.jpg","","","","","Memory","true","true","","","",""
"","null","html-keyboard-response","102","2.0.0","1026859","pjw2f4uz82k","falcon","null","<div style=""font-size:60px; color: green;"">+</div>","","","","","","","","","","",""
"","null","image-keyboard-response","103","2.0.0","1028862","pjw2f4uz82k","falcon","null","stimuli\EXEMPLAR\USED\Efishbowl1.jpg","","","","","Memory","false","null","","","",""
"","null","html-keyboard-response","104","2.0.0","1029365","pjw2f4uz82k","falcon","null","<div style=""font-size:60px; color: black;"">+</div>","","","","","","","","","","",""
"","null","image-keyboard-response","105","2.0.0","1031369","pjw2f4uz82k","falcon","null","stimuli\STATE\USED\Siron2.jpg","","","","","Memory","false","null","","","",""
"","null","html-keyboard-response","106","2.0.0","1031871","pjw2f4uz82k","falcon","null","<div style=""font-size:60px; color: black;"">+</div>","","","","","","","","","","",""
"","2859","html-button-response","107","2.0.0","1034733","pjw2f4uz82k","falcon","0","Are you still there?","","","","","Attention Check","","","","","",""
"","null","image-keyboard-response","108","2.0.0","1036736","pjw2f4uz82k","falcon","null","stimuli\STATE\USED\Snapkins1.jpg","","","","","Memory","false","null","","","",""
"","null","html-keyboard-response","109","2.0.0","1037240","pjw2f4uz82k","falcon","null","<div style=""font-size:60px; color: black;"">+</div>","","","","","","","","","","",""
"","null","image-keyboard-response","110","2.0.0","1039243","pjw2f4uz82k","falcon","null","stimuli\EXEMPLAR\USED\Ehoe1.jpg","","","","","Memory","false","null","","","",""
"","null","html-keyboard-response","111","2.0.0","1039746","pjw2f4uz82k","falcon","null","<div style=""font-size:60px; color: black;"">+</div>","","","","","","","","","","",""
"","null","image-keyboard-response","112","2.0.0","1041749","pjw2f4uz82k","falcon","null","stimuli\STATE\USED\Sscales1.jpg","","","","","Memory","false","null","","","",""
"","null","html-keyboard-response","113","2.0.0","1042252","pjw2f4uz82k","falcon","null","<div style=""font-size:60px; color: black;"">+</div>","","","","","","","","","","",""
"","null","image-keyboard-response","114","2.0.0","1044255","pjw2f4uz82k","falcon","null","stimuli\STATE\USED\Sclipboard1.jpg","","","","","Memory","false","null","","","",""
"","null","html-keyboard-response","115","2.0.0","1044757","pjw2f4uz82k","falcon","null","<div style=""font-size:60px; color: black;"">+</div>","","","","","","","","","","",""
"","null","image-keyboard-response","116","2.0.0","1046761","pjw2f4uz82k","falcon","null","stimuli\STATE\USED\Scoffeemaker1.JPG","","","","","Memory","false","null","","","",""
"","null","html-keyboard-response","117","2.0.0","1047263","pjw2f4uz82k","falcon","null","<div style=""font-size:60px; color: black;"">+</div>","","","","","","","","","","",""
"","null","image-keyboard-response","118","2.0.0","1049266","pjw2f4uz82k","falcon","null","stimuli\EXEMPLAR\USED\Esunglasses2.jpg","","","","","Memory","false","null","","","",""
"","null","html-keyboard-response","119","2.0.0","1049769","pjw2f4uz82k","falcon","null","<div style=""font-size:60px; color: black;"">+</div>","","","","","","","","","","",""
"","null","image-keyboard-response","120","2.0.0","1051773","pjw2f4uz82k","falcon","null","stimuli\STATE\USED\Sseats2.jpg","","","","","Memory","false","null","","","",""
"","null","html-keyboard-response","121","2.0.0","1052276","pjw2f4uz82k","falcon","null","<div style=""font-size:60px; color: black;"">+</div>","","","","","","","","","","",""
"","null","image-keyboard-response","122","2.0.0","1054279","pjw2f4uz82k","falcon","null","stimuli\EXEMPLAR\USED\Edinosaur1.jpg","","","","","Memory","false","null","","","",""
"","null","html-keyboard-response","123","2.0.0","1054782","pjw2f4uz82k","falcon","null","<div style=""font-size:60px; color: black;"">+</div>","","","","","","","","","","",""
"","991","image-keyboard-response","124","2.0.0","1056787","pjw2f4uz82k","falcon"," ","stimuli\STATE\USED\Scoffeemaker1.JPG","","","","","Memory","true","true","","","",""
"","null","html-keyboard-response","125","2.0.0","1057289","pjw2f4uz82k","falcon","null","<div style=""font-size:60px; color: green;"">+</div>","","","","","","","","","","",""
"","null","image-keyboard-response","126","2.0.0","1059293","pjw2f4uz82k","falcon","null","stimuli\EXEMPLAR\USED\Ebunny1.jpg","","","","","Memory","false","null","","","",""
"","null","html-keyboard-response","127","2.0.0","1059796","pjw2f4uz82k","falcon","null","<div style=""font-size:60px; color: black;"">+</div>","","","","","","","","","","",""
"","null","image-keyboard-response","128","2.0.0","1061799","pjw2f4uz82k","falcon","null","stimuli\STATE\USED\Ssweater1.jpg","","","","","Memory","false","null","","","",""
"","null","html-keyboard-response","129","2.0.0","1062302","pjw2f4uz82k","falcon","null","<div style=""font-size:60px; color: black;"">+</div>","","","","","","","","","","",""
"","null","image-keyboard-response","130","2.0.0","1064306","pjw2f4uz82k","falcon","null","stimuli\STATE\USED\Sapplesredbasket1.JPG","","","","","Memory","false","null","","","",""
"","null","html-keyboard-response","131","2.0.0","1064809","pjw2f4uz82k","falcon","null","<div style=""font-size:60px; color: black;"">+</div>","","","","","","","","","","",""
"","null","image-keyboard-response","132","2.0.0","1066813","pjw2f4uz82k","falcon","null","stimuli\EXEMPLAR\USED\Etongs2.jpg","","","","","Memory","false","null","","","",""
"","null","html-keyboard-response","133","2.0.0","1067316","pjw2f4uz82k","falcon","null","<div style=""font-size:60px; color: black;"">+</div>","","","","","","","","","","",""
"","null","image-keyboard-response","134","2.0.0","1069320","pjw2f4uz82k","falcon","null","stimuli\EXEMPLAR\USED\Etrain1.jpg","","","","","Memory","false","null","","","",""
"","null","html-keyboard-response","135","2.0.0","1069822","pjw2f4uz82k","falcon","null","<div style=""font-size:60px; color: black;"">+</div>","","","","","","","","","","",""
"","1001","image-keyboard-response","136","2.0.0","1071825","pjw2f4uz82k","falcon"," ","stimuli\STATE\USED\Ssweater1.jpg","","","","","Memory","true","true","","","",""
"","null","html-keyboard-response","137","2.0.0","1072328","pjw2f4uz82k","falcon","null","<div style=""font-size:60px; color: green;"">+</div>","","","","","","","","","","",""
"","null","image-keyboard-response","138","2.0.0","1074331","pjw2f4uz82k","falcon","null","stimuli\EXEMPLAR\USED\Echopsticks1.jpg","","","","","Memory","false","null","","","",""
"","null","html-keyboard-response","139","2.0.0","1074833","pjw2f4uz82k","falcon","null","<div style=""font-size:60px; color: black;"">+</div>","","","","","","","","","","",""
"","null","image-keyboard-response","140","2.0.0","1076837","pjw2f4uz82k","falcon","null","stimuli\EXEMPLAR\USED\Epliers1.jpg","","","","","Memory","false","null","","","",""
"","null","html-keyboard-response","141","2.0.0","1077340","pjw2f4uz82k","falcon","null","<div style=""font-size:60px; color: black;"">+</div>","","","","","","","","","","",""
"","null","image-keyboard-response","142","2.0.0","1079344","pjw2f4uz82k","falcon","null","stimuli\STATE\USED\Saccordion1.jpg","","","","","Memory","false","null","","","",""
"","null","html-keyboard-response","143","2.0.0","1079847","pjw2f4uz82k","falcon","null","<div style=""font-size:60px; color: black;"">+</div>","","","","","","","","","","",""
"","null","image-keyboard-response","144","2.0.0","1081851","pjw2f4uz82k","falcon","null","stimuli\STATE\USED\Spestle1.jpg","","","","","Memory","false","null","","","",""
"","null","html-keyboard-response","145","2.0.0","1082354","pjw2f4uz82k","falcon","null","<div style=""font-size:60px; color: black;"">+</div>","","","","","","","","","","",""
"","null","image-keyboard-response","146","2.0.0","1084358","pjw2f4uz82k","falcon","null","stimuli\STATE\USED\Spadlock2.jpg","","","","","Memory","false","null","","","",""
"","null","html-keyboard-response","147","2.0.0","1084860","pjw2f4uz82k","falcon","null","<div style=""font-size:60px; color: black;"">+</div>","","","","","","","","","","",""
"","null","image-keyboard-response","148","2.0.0","1086864","pjw2f4uz82k","falcon","null","stimuli\STATE\USED\Sapplesgreenbasket1.jpg","","","","","Memory","false","null","","","",""
"","null","html-keyboard-response","149","2.0.0","1087366","pjw2f4uz82k","falcon","null","<div style=""font-size:60px; color: black;"">+</div>","","","","","","","","","","",""
"","null","image-keyboard-response","150","2.0.0","1089370","pjw2f4uz82k","falcon","null","stimuli\STATE\USED\Sscanner1.JPG","","","","","Memory","false","null","","","",""
"","null","html-keyboard-response","151","2.0.0","1089872","pjw2f4uz82k","falcon","null","<div style=""font-size:60px; color: black;"">+</div>","","","","","","","","","","",""
"","null","image-keyboard-response","152","2.0.0","1091876","pjw2f4uz82k","falcon","null","stimuli\STATE\USED\Spestle1.jpg","","","","","Memory","true","null","","","",""
"","null","html-keyboard-response","153","2.0.0","1092379","pjw2f4uz82k","falcon","null","<div style=""font-size:60px; color: black;"">+</div>","","","","","","","","","","",""
"","null","image-keyboard-response","154","2.0.0","1094383","pjw2f4uz82k","falcon","null","stimuli\STATE\USED\Spicnicbasket2.jpg","","","","","Memory","false","null","","","",""
"","null","html-keyboard-response","155","2.0.0","1094887","pjw2f4uz82k","falcon","null","<div style=""font-size:60px; color: black;"">+</div>","","","","","","","","","","",""
"","null","image-keyboard-response","156","2.0.0","1096891","pjw2f4uz82k","falcon","null","stimuli\EXEMPLAR\USED\Ecamera1.jpg","","","","","Memory","false","null","","","",""
"","null","html-keyboard-response","157","2.0.0","1097393","pjw2f4uz82k","falcon","null","<div style=""font-size:60px; color: black;"">+</div>","","","","","","","","","","",""
"","null","image-keyboard-response","158","2.0.0","1099397","pjw2f4uz82k","falcon","null","stimuli\STATE\USED\Stiger1.jpg","","","","","Memory","false","null","","","",""
"","null","html-keyboard-response","159","2.0.0","1099899","pjw2f4uz82k","falcon","null","<div style=""font-size:60px; color: black;"">+</div>","","","","","","","","","","",""
"","null","image-keyboard-response","160","2.0.0","1101903","pjw2f4uz82k","falcon","null","stimuli\STATE\USED\Shandsign2.JPG","","","","","Memory","false","null","","","",""
"","null","html-keyboard-response","161","2.0.0","1102406","pjw2f4uz82k","falcon","null","<div style=""font-size:60px; color: black;"">+</div>","","","","","","","","","","",""
"","null","image-keyboard-response","162","2.0.0","1104410","pjw2f4uz82k","falcon","null","stimuli\STATE\USED\Sbriefcasemetal1.JPG","","","","","Memory","false","null","","","",""
"","null","html-keyboard-response","163","2.0.0","1104913","pjw2f4uz82k","falcon","null","<div style=""font-size:60px; color: black;"">+</div>","","","","","","","","","","",""
"","null","image-keyboard-response","164","2.0.0","1106916","pjw2f4uz82k","falcon","null","stimuli\EXEMPLAR\USED\Etrowel1.jpg","","","","","Memory","false","null","","","",""
"","null","html-keyboard-response","165","2.0.0","1107419","pjw2f4uz82k","falcon","null","<div style=""font-size:60px; color: black;"">+</div>","","","","","","","","","","",""
"","null","image-keyboard-response","166","2.0.0","1109423","pjw2f4uz82k","falcon","null","stimuli\STATE\USED\Srhino2.jpg","","","","","Memory","false","null","","","",""
"","null","html-keyboard-response","167","2.0.0","1109926","pjw2f4uz82k","falcon","null","<div style=""font-size:60px; color: black;"">+</div>","","","","","","","","","","",""
"","null","image-keyboard-response","168","2.0.0","1111930","pjw2f4uz82k","falcon","null","stimuli\EXEMPLAR\USED\Eicecream2.jpg","","","","","Memory","false","null","","","",""
"","null","html-keyboard-response","169","2.0.0","1112432","pjw2f4uz82k","falcon","null","<div style=""font-size:60px; color: black;"">+</div>","","","","","","","","","","",""
"","null","image-keyboard-response","170","2.0.0","1114436","pjw2f4uz82k","falcon","null","stimuli\EXEMPLAR\USED\Etoywrench2.jpg","","","","","Memory","false","null","","","",""
"","null","html-keyboard-response","171","2.0.0","1114938","pjw2f4uz82k","falcon","null","<div style=""font-size:60px; color: black;"">+</div>","","","","","","","","","","",""
"","null","image-keyboard-response","172","2.0.0","1116942","pjw2f4uz82k","falcon","null","stimuli\EXEMPLAR\USED\Ebonzai2.jpg","","","","","Memory","false","null","","","",""
"","null","html-keyboard-response","173","2.0.0","1117445","pjw2f4uz82k","falcon","null","<div style=""font-size:60px; color: black;"">+</div>","","","","","","","","","","",""
"","null","image-keyboard-response","174","2.0.0","1119448","pjw2f4uz82k","falcon","null","stimuli\STATE\USED\Slaptop2.JPG","","","","","Memory","false","null","","","",""
"","null","html-keyboard-response","175","2.0.0","1119951","pjw2f4uz82k","falcon","null","<div style=""font-size:60px; color: black;"">+</div>","","","","","","","","","","",""
"","1734","image-keyboard-response","176","2.0.0","1121955","pjw2f4uz82k","falcon"," ","stimuli\EXEMPLAR\USED\Eicecream2.jpg","","","","","Memory","true","true","","","",""
"","null","html-keyboard-response","177","2.0.0","1122457","pjw2f4uz82k","falcon","null","<div style=""font-size:60px; color: green;"">+</div>","","","","","","","","","","",""
"","null","image-keyboard-response","178","2.0.0","1124461","pjw2f4uz82k","falcon","null","stimuli\STATE\USED\Sstoplight1.jpg","","","","","Memory","false","null","","","",""
"","null","html-keyboard-response","179","2.0.0","1124964","pjw2f4uz82k","falcon","null","<div style=""font-size:60px; color: black;"">+</div>","","","","","","","","","","",""
"","null","image-keyboard-response","180","2.0.0","1126968","pjw2f4uz82k","falcon","null","stimuli\STATE\USED\Srainbowslice2.jpg","","","","","Memory","false","null","","","",""
"","null","html-keyboard-response","181","2.0.0","1127471","pjw2f4uz82k","falcon","null","<div style=""font-size:60px; color: black;"">+</div>","","","","","","","","","","",""
"","null","image-keyboard-response","182","2.0.0","1129474","pjw2f4uz82k","falcon","null","stimuli\STATE\USED\Spolarbear2.jpg","","","","","Memory","false","null","","","",""
"","null","html-keyboard-response","183","2.0.0","1129976","pjw2f4uz82k","falcon","null","<div style=""font-size:60px; color: black;"">+</div>","","","","","","","","","","",""
"","null","image-keyboard-response","184","2.0.0","1131980","pjw2f4uz82k","falcon","null","stimuli\STATE\USED\Scooker1.jpg","","","","","Memory","false","null","","","",""
"","null","html-keyboard-response","185","2.0.0","1132482","pjw2f4uz82k","falcon","null","<div style=""font-size:60px; color: black;"">+</div>","","","","","","","","","","",""
"","1878","image-keyboard-response","186","2.0.0","1134486","pjw2f4uz82k","falcon"," ","stimuli\STATE\USED\Sstoplight1.jpg","","","","","Memory","true","true","","","",""
"","null","html-keyboard-response","187","2.0.0","1134989","pjw2f4uz82k","falcon","null","<div style=""font-size:60px; color: green;"">+</div>","","","","","","","","","","",""
"","null","image-keyboard-response","188","2.0.0","1136992","pjw2f4uz82k","falcon","null","stimuli\EXEMPLAR\USED\Eglobe1.jpg","","","","","Memory","false","null","","","",""
"","null","html-keyboard-response","189","2.0.0","1137495","pjw2f4uz82k","falcon","null","<div style=""font-size:60px; color: black;"">+</div>","","","","","","","","","","",""
"","null","image-keyboard-response","190","2.0.0","1139498","pjw2f4uz82k","falcon","null","stimuli\STATE\USED\Sdoughhands2.jpg","","","","","Memory","false","null","","","",""
"","null","html-keyboard-response","191","2.0.0","1140000","pjw2f4uz82k","falcon","null","<div style=""font-size:60px; color: black;"">+</div>","","","","","","","","","","",""
"","null","image-keyboard-response","192","2.0.0","1142004","pjw2f4uz82k","falcon","null","stimuli\EXEMPLAR\USED\Estarfish1.jpg","","","","","Memory","false","null","","","",""
"","null","html-keyboard-response","193","2.0.0","1142507","pjw2f4uz82k","falcon","null","<div style=""font-size:60px; color: black;"">+</div>","","","","","","","","","","",""
"","null","image-keyboard-response","194","2.0.0","1144510","pjw2f4uz82k","falcon","null","stimuli\EXEMPLAR\USED\Emitt2.jpg","","","","","Memory","false","null","","","",""
"","null","html-keyboard-response","195","2.0.0","1145013","pjw2f4uz82k","falcon","null","<div style=""font-size:60px; color: black;"">+</div>","","","","","","","","","","",""
"","1334","image-keyboard-response","196","2.0.0","1147017","pjw2f4uz82k","falcon"," ","stimuli\EXEMPLAR\USED\Eglobe1.jpg","","","","","Memory","true","true","","","",""
"","null","html-keyboard-response","197","2.0.0","1147519","pjw2f4uz82k","falcon","null","<div style=""font-size:60px; color: green;"">+</div>","","","","","","","","","","",""
"","null","image-keyboard-response","198","2.0.0","1149523","pjw2f4uz82k","falcon","null","stimuli\EXEMPLAR\USED\Eswimsuit1.jpg","","","","","Memory","false","null","","","",""
"","null","html-keyboard-response","199","2.0.0","1150025","pjw2f4uz82k","falcon","null","<div style=""font-size:60px; color: black;"">+</div>","","","","","","","","","","",""
"","null","image-keyboard-response","200","2.0.0","1152029","pjw2f4uz82k","falcon","null","stimuli\STATE\USED\Saccordionsmall1.JPG","","","","","Memory","false","null","","","",""
"","null","html-keyboard-response","201","2.0.0","1152532","pjw2f4uz82k","falcon","null","<div style=""font-size:60px; color: black;"">+</div>","","","","","","","","","","",""
"","null","image-keyboard-response","202","2.0.0","1154535","pjw2f4uz82k","falcon","null","stimuli\STATE\USED\Sumbrella1.jpg","","","","","Memory","false","null","","","",""
"","null","html-keyboard-response","203","2.0.0","1155038","pjw2f4uz82k","falcon","null","<div style=""font-size:60px; color: black;"">+</div>","","","","","","","","","","",""
"","null","image-keyboard-response","204","2.0.0","1157042","pjw2f4uz82k","falcon","null","stimuli\STATE\USED\Spumpkinpie2.jpg","","","","","Memory","false","null","","","",""
"","null","html-keyboard-response","205","2.0.0","1157545","pjw2f4uz82k","falcon","null","<div style=""font-size:60px; color: black;"">+</div>","","","","","","","","","","",""
"","null","image-keyboard-response","206","2.0.0","1159548","pjw2f4uz82k","falcon","null","stimuli\STATE\USED\Sredcabbage1.jpg","","","","","Memory","false","null","","","",""
"","null","html-keyboard-response","207","2.0.0","1160050","pjw2f4uz82k","falcon","null","<div style=""font-size:60px; color: black;"">+</div>","","","","","","","","","","",""
"","1304","image-keyboard-response","208","2.0.0","1162054","pjw2f4uz82k","falcon"," ","stimuli\STATE\USED\Saccordionsmall1.JPG","","","","","Memory","true","true","","","",""
"","null","html-keyboard-response","209","2.0.0","1162557","pjw2f4uz82k","falcon","null","<div style=""font-size:60px; color: green;"">+</div>","","","","","","","","","","",""
"","1106","html-button-response","210","2.0.0","1163664","pjw2f4uz82k","falcon","0","Are you still there?","","","","","Attention Check","","","","","",""
"","null","image-keyboard-response","211","2.0.0","1165667","pjw2f4uz82k","falcon","null","stimuli\STATE\USED\Sdie1.jpg","","","","","Memory","false","null","","","",""
"","null","html-keyboard-response","212","2.0.0","1166170","pjw2f4uz82k","falcon","null","<div style=""font-size:60px; color: black;"">+</div>","","","","","","","","","","",""
"","null","image-keyboard-response","213","2.0.0","1168174","pjw2f4uz82k","falcon","null","stimuli\STATE\USED\Sdonut1.jpg","","","","","Memory","false","null","","","",""
"","null","html-keyboard-response","214","2.0.0","1168677","pjw2f4uz82k","falcon","null","<div style=""font-size:60px; color: black;"">+</div>","","","","","","","","","","",""
"","null","image-keyboard-response","215","2.0.0","1170680","pjw2f4uz82k","falcon","null","stimuli\EXEMPLAR\USED\Eguitar2.jpg","","","","","Memory","false","null","","","",""
"","null","html-keyboard-response","216","2.0.0","1171183","pjw2f4uz82k","falcon","null","<div style=""font-size:60px; color: black;"">+</div>","","","","","","","","","","",""
"","null","image-keyboard-response","217","2.0.0","1173186","pjw2f4uz82k","falcon","null","stimuli\STATE\USED\Sbox2.jpg","","","","","Memory","false","null","","","",""
"","null","html-keyboard-response","218","2.0.0","1173688","pjw2f4uz82k","falcon","null","<div style=""font-size:60px; color: black;"">+</div>","","","","","","","","","","",""
"","null","image-keyboard-response","219","2.0.0","1175691","pjw2f4uz82k","falcon","null","stimuli\STATE\USED\Sbelt1.jpg","","","","","Memory","false","null","","","",""
"","null","html-keyboard-response","220","2.0.0","1176193","pjw2f4uz82k","falcon","null","<div style=""font-size:60px; color: black;"">+</div>","","","","","","","","","","",""
"","1041","image-keyboard-response","221","2.0.0","1178196","pjw2f4uz82k","falcon"," ","stimuli\STATE\USED\Sdonut1.jpg","","","","","Memory","true","true","","","",""
"","null","html-keyboard-response","222","2.0.0","1178700","pjw2f4uz82k","falcon","null","<div style=""font-size:60px; color: green;"">+</div>","","","","","","","","","","",""
"","null","image-keyboard-response","223","2.0.0","1180703","pjw2f4uz82k","falcon","null","stimuli\EXEMPLAR\USED\Epeppers2.jpg","","","","","Memory","false","null","","","",""
"","null","html-keyboard-response","224","2.0.0","1181205","pjw2f4uz82k","falcon","null","<div style=""font-size:60px; color: black;"">+</div>","","","","","","","","","","",""
"","null","image-keyboard-response","225","2.0.0","1183208","pjw2f4uz82k","falcon","null","stimuli\EXEMPLAR\USED\Esantahat1.jpg","","","","","Memory","false","null","","","",""
"","null","html-keyboard-response","226","2.0.0","1183711","pjw2f4uz82k","falcon","null","<div style=""font-size:60px; color: black;"">+</div>","","","","","","","","","","",""
"","null","image-keyboard-response","227","2.0.0","1185715","pjw2f4uz82k","falcon","null","stimuli\EXEMPLAR\USED\Etoyhand2.jpg","","","","","Memory","false","null","","","",""
"","null","html-keyboard-response","228","2.0.0","1186218","pjw2f4uz82k","falcon","null","<div style=""font-size:60px; color: black;"">+</div>","","","","","","","","","","",""
"","null","image-keyboard-response","229","2.0.0","1188222","pjw2f4uz82k","falcon","null","stimuli\STATE\USED\Sbarnmailbox2.jpg","","","","","Memory","false","null","","","",""
"","null","html-keyboard-response","230","2.0.0","1188725","pjw2f4uz82k","falcon","null","<div style=""font-size:60px; color: black;"">+</div>","","","","","","","","","","",""
"","null","image-keyboard-response","231","2.0.0","1190729","pjw2f4uz82k","falcon","null","stimuli\EXEMPLAR\USED\Ecake1.jpg","","","","","Memory","false","null","","","",""
"","null","html-keyboard-response","232","2.0.0","1191232","pjw2f4uz82k","falcon","null","<div style=""font-size:60px; color: black;"">+</div>","","","","","","","","","","",""
"","null","image-keyboard-response","233","2.0.0","1193235","pjw2f4uz82k","falcon","null","stimuli\STATE\USED\Sgrinder1.jpg","","","","","Memory","false","null","","","",""
"","null","html-keyboard-response","234","2.0.0","1193739","pjw2f4uz82k","falcon","null","<div style=""font-size:60px; color: black;"">+</div>","","","","","","","","","","",""
"","null","image-keyboard-response","235","2.0.0","1195742","pjw2f4uz82k","falcon","null","stimuli\EXEMPLAR\USED\Elog1.jpg","","","","","Memory","false","null","","","",""
"","null","html-keyboard-response","236","2.0.0","1196245","pjw2f4uz82k","falcon","null","<div style=""font-size:60px; color: black;"">+</div>","","","","","","","","","","",""
"","1263","image-keyboard-response","237","2.0.0","1198249","pjw2f4uz82k","falcon"," ","stimuli\STATE\USED\Sbarnmailbox2.jpg","","","","","Memory","true","true","","","",""
"","null","html-keyboard-response","238","2.0.0","1198751","pjw2f4uz82k","falcon","null","<div style=""font-size:60px; color: green;"">+</div>","","","","","","","","","","",""
"","null","image-keyboard-response","239","2.0.0","1200754","pjw2f4uz82k","falcon","null","stimuli\STATE\USED\Smedicaltape2.jpg","","","","","Memory","false","null","","","",""
"","null","html-keyboard-response","240","2.0.0","1201257","pjw2f4uz82k","falcon","null","<div style=""font-size:60px; color: black;"">+</div>","","","","","","","","","","",""
"","null","image-keyboard-response","241","2.0.0","1203260","pjw2f4uz82k","falcon","null","stimuli\EXEMPLAR\USED\Edispenser2.jpg","","","","","Memory","false","null","","","",""
"","null","html-keyboard-response","242","2.0.0","1203763","pjw2f4uz82k","falcon","null","<div style=""font-size:60px; color: black;"">+</div>","","","","","","","","","","",""
"","null","image-keyboard-response","243","2.0.0","1205766","pjw2f4uz82k","falcon","null","stimuli\STATE\USED\Sphoneold1.jpg","","","","","Memory","false","null","","","",""
"","null","html-keyboard-response","244","2.0.0","1206269","pjw2f4uz82k","falcon","null","<div style=""font-size:60px; color: black;"">+</div>","","","","","","","","","","",""
"","null","image-keyboard-response","245","2.0.0","1208272","pjw2f4uz82k","falcon","null","stimuli\EXEMPLAR\USED\Elei2.jpg","","","","","Memory","false","null","","","",""
"","null","html-keyboard-response","246","2.0.0","1208775","pjw2f4uz82k","falcon","null","<div style=""font-size:60px; color: black;"">+</div>","","","","","","","","","","",""
"","null","image-keyboard-response","247","2.0.0","1210779","pjw2f4uz82k","falcon","null","stimuli\EXEMPLAR\USED\Epiano2.jpg","","","","","Memory","false","null","","","",""
"","null","html-keyboard-response","248","2.0.0","1211282","pjw2f4uz82k","falcon","null","<div style=""font-size:60px; color: black;"">+</div>","","","","","","","","","","",""
"","null","image-keyboard-response","249","2.0.0","1213286","pjw2f4uz82k","falcon","null","stimuli\STATE\USED\Spotpan1.JPG","","","","","Memory","false","null","","","",""
"","null","html-keyboard-response","250","2.0.0","1213788","pjw2f4uz82k","falcon","null","<div style=""font-size:60px; color: black;"">+</div>","","","","","","","","","","",""
"","null","image-keyboard-response","251","2.0.0","1215792","pjw2f4uz82k","falcon","null","stimuli\STATE\USED\Swaffleiron2.jpg","","","","","Memory","false","null","","","",""
"","null","html-keyboard-response","252","2.0.0","1216295","pjw2f4uz82k","falcon","null","<div style=""font-size:60px; color: black;"">+</div>","","","","","","","","","","",""
"","null","image-keyboard-response","253","2.0.0","1218297","pjw2f4uz82k","falcon","null","stimuli\EXEMPLAR\USED\Escroll1.jpg","","","","","Memory","false","null","","","",""
"","null","html-keyboard-response","254","2.0.0","1218799","pjw2f4uz82k","falcon","null","<div style=""font-size:60px; color: black;"">+</div>","","","","","","","","","","",""
"","null","image-keyboard-response","255","2.0.0","1220803","pjw2f4uz82k","falcon","null","stimuli\EXEMPLAR\USED\Etractor1.jpg","","","","","Memory","false","null","","","",""
"","null","html-keyboard-response","256","2.0.0","1221305","pjw2f4uz82k","falcon","null","<div style=""font-size:60px; color: black;"">+</div>","","","","","","","","","","",""
"","null","image-keyboard-response","257","2.0.0","1223309","pjw2f4uz82k","falcon","null","stimuli\STATE\USED\Sbureau2.JPG","","","","","Memory","false","null","","","",""
"","null","html-keyboard-response","258","2.0.0","1223812","pjw2f4uz82k","falcon","null","<div style=""font-size:60px; color: black;"">+</div>","","","","","","","","","","",""
"","null","image-keyboard-response","259","2.0.0","1225816","pjw2f4uz82k","falcon","null","stimuli\EXEMPLAR\USED\Etoykeys1.jpg","","","","","Memory","false","null","","","",""
"","null","html-keyboard-response","260","2.0.0","1226318","pjw2f4uz82k","falcon","null","<div style=""font-size:60px; color: black;"">+</div>","","","","","","","","","","",""
"","null","image-keyboard-response","261","2.0.0","1228322","pjw2f4uz82k","falcon","null","stimuli\STATE\USED\Sbook1.JPG","","","","","Memory","false","null","","","",""
"","null","html-keyboard-response","262","2.0.0","1228824","pjw2f4uz82k","falcon","null","<div style=""font-size:60px; color: black;"">+</div>","","","","","","","","","","",""
"","null","image-keyboard-response","263","2.0.0","1230828","pjw2f4uz82k","falcon","null","stimuli\EXEMPLAR\USED\Erabbit1.jpg","","","","","Memory","false","null","","","",""
"","null","html-keyboard-response","264","2.0.0","1231331","pjw2f4uz82k","falcon","null","<div style=""font-size:60px; color: black;"">+</div>","","","","","","","","","","",""
"","null","image-keyboard-response","265","2.0.0","1233334","pjw2f4uz82k","falcon","null","stimuli\STATE\USED\Sbooks2.JPG","","","","","Memory","false","null","","","",""
"","null","html-keyboard-response","266","2.0.0","1233836","pjw2f4uz82k","falcon","null","<div style=""font-size:60px; color: black;"">+</div>","","","","","","","","","","",""
"","null","image-keyboard-response","267","2.0.0","1235840","pjw2f4uz82k","falcon","null","stimuli\EXEMPLAR\USED\Ecalculator2.jpg","","","","","Memory","false","null","","","",""
"","null","html-keyboard-response","268","2.0.0","1236343","pjw2f4uz82k","falcon","null","<div style=""font-size:60px; color: black;"">+</div>","","","","","","","","","","",""
"","null","image-keyboard-response","269","2.0.0","1238347","pjw2f4uz82k","falcon","null","stimuli\EXEMPLAR\USED\Emuffler1.jpg","","","","","Memory","false","null","","","",""
"","null","html-keyboard-response","270","2.0.0","1238850","pjw2f4uz82k","falcon","null","<div style=""font-size:60px; color: black;"">+</div>","","","","","","","","","","",""
"","null","image-keyboard-response","271","2.0.0","1240853","pjw2f4uz82k","falcon","null","stimuli\STATE\USED\Sflask2.jpg","","","","","Memory","false","null","","","",""
"","null","html-keyboard-response","272","2.0.0","1241356","pjw2f4uz82k","falcon","null","<div style=""font-size:60px; color: black;"">+</div>","","","","","","","","","","",""
"","null","image-keyboard-response","273","2.0.0","1243360","pjw2f4uz82k","falcon","null","stimuli\STATE\USED\Sgiftbag2.jpg","","","","","Memory","false","null","","","",""
"","null","html-keyboard-response","274","2.0.0","1243862","pjw2f4uz82k","falcon","null","<div style=""font-size:60px; color: black;"">+</div>","","","","","","","","","","",""
"","null","image-keyboard-response","275","2.0.0","1245866","pjw2f4uz82k","falcon","null","stimuli\STATE\USED\Sschoolbag1.JPG","","","","","Memory","false","null","","","",""
"","null","html-keyboard-response","276","2.0.0","1246369","pjw2f4uz82k","falcon","null","<div style=""font-size:60px; color: black;"">+</div>","","","","","","","","","","",""
"","null","image-keyboard-response","277","2.0.0","1248373","pjw2f4uz82k","falcon","null","stimuli\EXEMPLAR\USED\Ebicycle2.jpg","","","","","Memory","false","null","","","",""
"","null","html-keyboard-response","278","2.0.0","1248875","pjw2f4uz82k","falcon","null","<div style=""font-size:60px; color: black;"">+</div>","","","","","","","","","","",""
"","1132","image-keyboard-response","279","2.0.0","1250878","pjw2f4uz82k","falcon"," ","stimuli\STATE\USED\Sflask2.jpg","","","","","Memory","true","true","","","",""
"","null","html-keyboard-response","280","2.0.0","1251381","pjw2f4uz82k","falcon","null","<div style=""font-size:60px; color: green;"">+</div>","","","","","","","","","","",""
"","null","image-keyboard-response","281","2.0.0","1253385","pjw2f4uz82k","falcon","null","stimuli\EXEMPLAR\USED\Eteapot1.JPG","","","","","Memory","false","null","","","",""
"","null","html-keyboard-response","282","2.0.0","1253888","pjw2f4uz82k","falcon","null","<div style=""font-size:60px; color: black;"">+</div>","","","","","","","","","","",""
"","null","image-keyboard-response","283","2.0.0","1255891","pjw2f4uz82k","falcon","null","stimuli\EXEMPLAR\USED\Efolder1.jpg","","","","","Memory","false","null","","","",""
"","null","html-keyboard-response","284","2.0.0","1256394","pjw2f4uz82k","falcon","null","<div style=""font-size:60px; color: black;"">+</div>","","","","","","","","","","",""
"","null","image-keyboard-response","285","2.0.0","1258398","pjw2f4uz82k","falcon","null","stimuli\STATE\USED\Sphone2.JPG","","","","","Memory","false","null","","","",""
"","null","html-keyboard-response","286","2.0.0","1258901","pjw2f4uz82k","falcon","null","<div style=""font-size:60px; color: black;"">+</div>","","","","","","","","","","",""
"","null","image-keyboard-response","287","2.0.0","1260905","pjw2f4uz82k","falcon","null","stimuli\STATE\USED\Sapple2.jpg","","","","","Memory","false","null","","","",""
"","null","html-keyboard-response","288","2.0.0","1261408","pjw2f4uz82k","falcon","null","<div style=""font-size:60px; color: black;"">+</div>","","","","","","","","","","",""
"","null","image-keyboard-response","289","2.0.0","1263412","pjw2f4uz82k","falcon","null","stimuli\STATE\USED\Schinesefoodbox1.jpg","","","","","Memory","false","null","","","",""
"","null","html-keyboard-response","290","2.0.0","1263914","pjw2f4uz82k","falcon","null","<div style=""font-size:60px; color: black;"">+</div>","","","","","","","","","","",""
"","null","image-keyboard-response","291","2.0.0","1265917","pjw2f4uz82k","falcon","null","stimuli\EXEMPLAR\USED\Etrophy1.jpg","","","","","Memory","false","null","","","",""
"","null","html-keyboard-response","292","2.0.0","1266420","pjw2f4uz82k","falcon","null","<div style=""font-size:60px; color: black;"">+</div>","","","","","","","","","","",""
"","null","image-keyboard-response","293","2.0.0","1268424","pjw2f4uz82k","falcon","null","stimuli\EXEMPLAR\USED\Earch2.jpg","","","","","Memory","false","null","","","",""
"","null","html-keyboard-response","294","2.0.0","1268927","pjw2f4uz82k","falcon","null","<div style=""font-size:60px; color: black;"">+</div>","","","","","","","","","","",""
"","1122","image-keyboard-response","295","2.0.0","1270930","pjw2f4uz82k","falcon"," ","stimuli\STATE\USED\Sapple2.jpg","","","","","Memory","true","true","","","",""
"","null","html-keyboard-response","296","2.0.0","1271433","pjw2f4uz82k","falcon","null","<div style=""font-size:60px; color: green;"">+</div>","","","","","","","","","","",""
"","null","image-keyboard-response","297","2.0.0","1273436","pjw2f4uz82k","falcon","null","stimuli\EXEMPLAR\USED\Emicroscope1.jpg","","","","","Memory","false","null","","","",""
"","null","html-keyboard-response","298","2.0.0","1273939","pjw2f4uz82k","falcon","null","<div style=""font-size:60px; color: black;"">+</div>","","","","","","","","","","",""
"","null","image-keyboard-response","299","2.0.0","1275942","pjw2f4uz82k","falcon","null","stimuli\STATE\USED\Shandshake2.JPG","","","","","Memory","false","null","","","",""
"","null","html-keyboard-response","300","2.0.0","1276445","pjw2f4uz82k","falcon","null","<div style=""font-size:60px; color: black;"">+</div>","","","","","","","","","","",""
"","null","image-keyboard-response","301","2.0.0","1278449","pjw2f4uz82k","falcon","null","stimuli\STATE\USED\Sdishwasher1.jpg","","","","","Memory","false","null","","","",""
"","null","html-keyboard-response","302","2.0.0","1278951","pjw2f4uz82k","falcon","null","<div style=""font-size:60px; color: black;"">+</div>","","","","","","","","","","",""
"","null","image-keyboard-response","303","2.0.0","1280955","pjw2f4uz82k","falcon","null","stimuli\STATE\USED\Sscissors1.JPG","","","","","Memory","false","null","","","",""
"","null","html-keyboard-response","304","2.0.0","1281458","pjw2f4uz82k","falcon","null","<div style=""font-size:60px; color: black;"">+</div>","","","","","","","","","","",""
"","1154","image-keyboard-response","305","2.0.0","1283462","pjw2f4uz82k","falcon"," ","stimuli\EXEMPLAR\USED\Emicroscope1.jpg","","","","","Memory","true","true","","","",""
"","null","html-keyboard-response","306","2.0.0","1283964","pjw2f4uz82k","falcon","null","<div style=""font-size:60px; color: green;"">+</div>","","","","","","","","","","",""
"","null","image-keyboard-response","307","2.0.0","1285968","pjw2f4uz82k","falcon","null","stimuli\STATE\USED\Spiggybank2.jpg","","","","","Memory","false","null","","","",""
"","null","html-keyboard-response","308","2.0.0","1286470","pjw2f4uz82k","falcon","null","<div style=""font-size:60px; color: black;"">+</div>","","","","","","","","","","",""
"","null","image-keyboard-response","309","2.0.0","1288475","pjw2f4uz82k","falcon","null","stimuli\STATE\USED\Seggplant2.jpg","","","","","Memory","false","null","","","",""
"","null","html-keyboard-response","310","2.0.0","1288977","pjw2f4uz82k","falcon","null","<div style=""font-size:60px; color: black;"">+</div>","","","","","","","","","","",""
"","null","image-keyboard-response","311","2.0.0","1290981","pjw2f4uz82k","falcon","null","stimuli\EXEMPLAR\USED\Ewineglass1.jpg","","","","","Memory","false","null","","","",""
"","null","html-keyboard-response","312","2.0.0","1291483","pjw2f4uz82k","falcon","null","<div style=""font-size:60px; color: black;"">+</div>","","","","","","","","","","",""
"","1077","html-button-response","313","2.0.0","1292562","pjw2f4uz82k","falcon","0","Are you still there?","","","","","Attention Check","","","","","",""
"","null","image-keyboard-response","314","2.0.0","1294565","pjw2f4uz82k","falcon","null","stimuli\EXEMPLAR\USED\Ebread2.jpg","","","","","Memory","false","null","","","",""
"","null","html-keyboard-response","315","2.0.0","1295068","pjw2f4uz82k","falcon","null","<div style=""font-size:60px; color: black;"">+</div>","","","","","","","","","","",""
"","null","image-keyboard-response","316","2.0.0","1297072","pjw2f4uz82k","falcon","null","stimuli\STATE\USED\Shairbrush2.jpg","","","","","Memory","false","null","","","",""
"","null","html-keyboard-response","317","2.0.0","1297575","pjw2f4uz82k","falcon","null","<div style=""font-size:60px; color: black;"">+</div>","","","","","","","","","","",""
"","null","image-keyboard-response","318","2.0.0","1299579","pjw2f4uz82k","falcon","null","stimuli\EXEMPLAR\USED\Eremover2.jpg","","","","","Memory","false","null","","","",""
"","null","html-keyboard-response","319","2.0.0","1300082","pjw2f4uz82k","falcon","null","<div style=""font-size:60px; color: black;"">+</div>","","","","","","","","","","",""
"","1276","image-keyboard-response","320","2.0.0","1302085","pjw2f4uz82k","falcon"," ","stimuli\EXEMPLAR\USED\Ewineglass1.jpg","","","","","Memory","true","true","","","",""
"","null","html-keyboard-response","321","2.0.0","1302587","pjw2f4uz82k","falcon","null","<div style=""font-size:60px; color: green;"">+</div>","","","","","","","","","","",""
"","null","image-keyboard-response","322","2.0.0","1304591","pjw2f4uz82k","falcon","null","stimuli\STATE\USED\Sbabytoy1.JPG","","","","","Memory","false","null","","","",""
"","null","html-keyboard-response","323","2.0.0","1305093","pjw2f4uz82k","falcon","null","<div style=""font-size:60px; color: black;"">+</div>","","","","","","","","","","",""
"","null","image-keyboard-response","324","2.0.0","1307096","pjw2f4uz82k","falcon","null","stimuli\STATE\USED\Spie2.JPG","","","","","Memory","false","null","","","",""
"","null","html-keyboard-response","325","2.0.0","1307599","pjw2f4uz82k","falcon","null","<div style=""font-size:60px; color: black;"">+</div>","","","","","","","","","","",""
"","null","image-keyboard-response","326","2.0.0","1309602","pjw2f4uz82k","falcon","null","stimuli\EXEMPLAR\USED\Echocolatebar1.jpg","","","","","Memory","false","null","","","",""
"","null","html-keyboard-response","327","2.0.0","1310106","pjw2f4uz82k","falcon","null","<div style=""font-size:60px; color: black;"">+</div>","","","","","","","","","","",""
"","null","image-keyboard-response","328","2.0.0","1312109","pjw2f4uz82k","falcon","null","stimuli\STATE\USED\Sbreadslice2.jpg","","","","","Memory","false","null","","","",""
"","null","html-keyboard-response","329","2.0.0","1312612","pjw2f4uz82k","falcon","null","<div style=""font-size:60px; color: black;"">+</div>","","","","","","","","","","",""
"","null","image-keyboard-response","330","2.0.0","1314615","pjw2f4uz82k","falcon","null","stimuli\EXEMPLAR\USED\Eheadphones2.jpg","","","","","Memory","false","null","","","",""
"","null","html-keyboard-response","331","2.0.0","1315117","pjw2f4uz82k","falcon","null","<div style=""font-size:60px; color: black;"">+</div>","","","","","","","","","","",""
"","null","image-keyboard-response","332","2.0.0","1317121","pjw2f4uz82k","falcon","null","stimuli\EXEMPLAR\USED\Ekayak1.jpg","","","","","Memory","false","null","","","",""
"","null","html-keyboard-response","333","2.0.0","1317623","pjw2f4uz82k","falcon","null","<div style=""font-size:60px; color: black;"">+</div>","","","","","","","","","","",""
"","null","image-keyboard-response","334","2.0.0","1319627","pjw2f4uz82k","falcon","null","stimuli\EXEMPLAR\USED\Eframe2.jpg","","","","","Memory","false","null","","","",""
"","null","html-keyboard-response","335","2.0.0","1320130","pjw2f4uz82k","falcon","null","<div style=""font-size:60px; color: black;"">+</div>","","","","","","","","","","",""
"","1227","image-keyboard-response","336","2.0.0","1322133","pjw2f4uz82k","falcon"," ","stimuli\STATE\USED\Sbreadslice2.jpg","","","","","Memory","true","true","","","",""
"","null","html-keyboard-response","337","2.0.0","1322636","pjw2f4uz82k","falcon","null","<div style=""font-size:60px; color: green;"">+</div>","","","","","","","","","","",""
"","null","image-keyboard-response","338","2.0.0","1324639","pjw2f4uz82k","falcon","null","stimuli\STATE\USED\Speppers2.jpg","","","","","Memory","false","null","","","",""
"","null","html-keyboard-response","339","2.0.0","1325141","pjw2f4uz82k","falcon","null","<div style=""font-size:60px; color: black;"">+</div>","","","","","","","","","","",""
"","null","image-keyboard-response","340","2.0.0","1327145","pjw2f4uz82k","falcon","null","stimuli\STATE\USED\Slockbox2.jpg","","","","","Memory","false","null","","","",""
"","null","html-keyboard-response","341","2.0.0","1327648","pjw2f4uz82k","falcon","null","<div style=""font-size:60px; color: black;"">+</div>","","","","","","","","","","",""
"","null","image-keyboard-response","342","2.0.0","1329652","pjw2f4uz82k","falcon","null","stimuli\EXEMPLAR\USED\Emoney2.jpg","","","","","Memory","false","null","","","",""
"","null","html-keyboard-response","343","2.0.0","1330154","pjw2f4uz82k","falcon","null","<div style=""font-size:60px; color: black;"">+</div>","","","","","","","","","","",""
"","null","image-keyboard-response","344","2.0.0","1332157","pjw2f4uz82k","falcon","null","stimuli\EXEMPLAR\USED\Epotatochips2.jpg","","","","","Memory","false","null","","","",""
"","null","html-keyboard-response","345","2.0.0","1332660","pjw2f4uz82k","falcon","null","<div style=""font-size:60px; color: black;"">+</div>","","","","","","","","","","",""
"","null","image-keyboard-response","346","2.0.0","1334664","pjw2f4uz82k","falcon","null","stimuli\EXEMPLAR\USED\Estapler1.jpg","","","","","Memory","false","null","","","",""
"","null","html-keyboard-response","347","2.0.0","1335167","pjw2f4uz82k","falcon","null","<div style=""font-size:60px; color: black;"">+</div>","","","","","","","","","","",""
"","6689","html-keyboard-response","348","2.0.0","1341859","pjw2f4uz82k","falcon"," ","
          <p>In the next part of this experiment, you will see 2 images. Please select the image that you recall from the image stream.</p>
          <p>You will also rate your confidence for each image you recall.</p>
          <p>Press any key to start.</p>
        ","","","","","","","","","","",""
"","2219","html-button-response","349","2.0.0","1344086","pjw2f4uz82k","falcon","1","Which of these items did you see before?","","","","","Test","","true","[""stimuli\\EXEMPLAR\\USED\\Ewheelchair2.jpg"",""stimuli\\EXEMPLAR\\USED\\Ewheelchair1.jpg""]","stimuli\EXEMPLAR\USED\Ewheelchair1.jpg","stimuli\EXEMPLAR\USED\Ewheelchair1.jpg",""
"","2295","image-slider-response","350","2.0.0","1346391","pjw2f4uz82k","falcon","1","stimuli\EXEMPLAR\USED\Ewheelchair1.jpg","","","","","","","","","","","3"
"","2430","html-button-response","351","2.0.0","1348829","pjw2f4uz82k","falcon","0","Which of these items did you see before?","","","","","Test","","true","[""stimuli\\EXEMPLAR\\USED\\Ebracelet1.jpg"",""stimuli\\EXEMPLAR\\USED\\Ebracelet2.jpg""]","stimuli\EXEMPLAR\USED\Ebracelet1.jpg","stimuli\EXEMPLAR\USED\Ebracelet1.jpg",""
"","1714","image-slider-response","352","2.0.0","1350548","pjw2f4uz82k","falcon","2","stimuli\EXEMPLAR\USED\Ebracelet1.jpg","","","","","","","","","","","3"
"","897","html-button-response","353","2.0.0","1351450","pjw2f4uz82k","falcon","1","Which of these items did you see before?","","","","","Test","","true","[""stimuli\\EXEMPLAR\\USED\\Erabbit2.jpg"",""stimuli\\EXEMPLAR\\USED\\Erabbit1.jpg""]","stimuli\EXEMPLAR\USED\Erabbit1.jpg","stimuli\EXEMPLAR\USED\Erabbit1.jpg",""
"","1330","image-slider-response","354","2.0.0","1352785","pjw2f4uz82k","falcon","5","stimuli\EXEMPLAR\USED\Erabbit1.jpg","","","","","","","","","","","3"
"","2581","html-button-response","355","2.0.0","1355372","pjw2f4uz82k","falcon","0","Which of these items did you see before?","","","","","Test","","false","[""stimuli\\EXEMPLAR\\USED\\Echeeses2.jpg"",""stimuli\\EXEMPLAR\\USED\\Echeeses1.jpg""]","stimuli\EXEMPLAR\USED\Echeeses1.jpg","stimuli\EXEMPLAR\USED\Echeeses2.jpg",""
"","1330","image-slider-response","356","2.0.0","1356706","pjw2f4uz82k","falcon","2","stimuli\EXEMPLAR\USED\Echeeses2.jpg","","","","","","","","","","","3"
"","3265","html-button-response","357","2.0.0","1359977","pjw2f4uz82k","falcon","0","Which of these items did you see before?","","","","","Test","","true","[""stimuli\\EXEMPLAR\\USED\\Efishbowl1.jpg"",""stimuli\\EXEMPLAR\\USED\\Efishbowl2.jpg""]","stimuli\EXEMPLAR\USED\Efishbowl1.jpg","stimuli\EXEMPLAR\USED\Efishbowl1.jpg",""
"","1395","image-slider-response","358","2.0.0","1361377","pjw2f4uz82k","falcon","2","stimuli\EXEMPLAR\USED\Efishbowl1.jpg","","","","","","","","","","","3"
"","1215","html-button-response","359","2.0.0","1362595","pjw2f4uz82k","falcon","0","Which of these items did you see before?","","","","","Test","","true","[""stimuli\\STATE\\USED\\Sschoolbag1.JPG"",""stimuli\\STATE\\USED\\Sschoolbag2.JPG""]","stimuli\STATE\USED\Sschoolbag1.JPG","stimuli\STATE\USED\Sschoolbag1.JPG",""
"","2030","image-slider-response","360","2.0.0","1364630","pjw2f4uz82k","falcon","5","stimuli\STATE\USED\Sschoolbag1.JPG","","","","","","","","","","","3"
"","2348","html-button-response","361","2.0.0","1366982","pjw2f4uz82k","falcon","1","Which of these items did you see before?","","","","","Test","","true","[""stimuli\\STATE\\USED\\Shairbrush1.jpg"",""stimuli\\STATE\\USED\\Shairbrush2.jpg""]","stimuli\STATE\USED\Shairbrush2.jpg","stimuli\STATE\USED\Shairbrush2.jpg",""
"","1980","image-slider-response","362","2.0.0","1368966","pjw2f4uz82k","falcon","2","stimuli\STATE\USED\Shairbrush2.jpg","","","","","","","","","","","3"
"","1264","html-button-response","363","2.0.0","1370233","pjw2f4uz82k","falcon","1","Which of these items did you see before?","","","","","Test","","true","[""stimuli\\EXEMPLAR\\USED\\Emuffler2.jpg"",""stimuli\\EXEMPLAR\\USED\\Emuffler1.jpg""]","stimuli\EXEMPLAR\USED\Emuffler1.jpg","stimuli\EXEMPLAR\USED\Emuffler1.jpg",""
"","1480","image-slider-response","364","2.0.0","1371717","pjw2f4uz82k","falcon","5","stimuli\EXEMPLAR\USED\Emuffler1.jpg","","","","","","","","","","","3"
"","864","html-button-response","365","2.0.0","1372584","pjw2f4uz82k","falcon","1","Which of these items did you see before?","","","","","Test","","true","[""stimuli\\STATE\\USED\\Spiggybank1.jpg"",""stimuli\\STATE\\USED\\Spiggybank2.jpg""]","stimuli\STATE\USED\Spiggybank2.jpg","stimuli\STATE\USED\Spiggybank2.jpg",""
"","1147","image-slider-response","366","2.0.0","1373735","pjw2f4uz82k","falcon","5","stimuli\STATE\USED\Spiggybank2.jpg","","","","","","","","","","","3"
"","881","html-button-response","367","2.0.0","1374618","pjw2f4uz82k","falcon","0","Which of these items did you see before?","","","","","Test","","true","[""stimuli\\EXEMPLAR\\USED\\Eglobe1.jpg"",""stimuli\\EXEMPLAR\\USED\\Eglobe2.jpg""]","stimuli\EXEMPLAR\USED\Eglobe1.jpg","stimuli\EXEMPLAR\USED\Eglobe1.jpg",""
"","2513","image-slider-response","368","2.0.0","1377135","pjw2f4uz82k","falcon","5","stimuli\EXEMPLAR\USED\Eglobe1.jpg","","","","","","","","","","","3"
"","948","html-button-response","369","2.0.0","1378086","pjw2f4uz82k","falcon","0","Which of these items did you see before?","","","","","Test","","true","[""stimuli\\STATE\\USED\\Ssweater1.jpg"",""stimuli\\STATE\\USED\\Ssweater2.jpg""]","stimuli\STATE\USED\Ssweater1.jpg","stimuli\STATE\USED\Ssweater1.jpg",""
"","1846","image-slider-response","370","2.0.0","1379935","pjw2f4uz82k","falcon","5","stimuli\STATE\USED\Ssweater1.jpg","","","","","","","","","","","3"
"","1599","html-button-response","371","2.0.0","1381536","pjw2f4uz82k","falcon","0","Which of these items did you see before?","","","","","Test","","true","[""stimuli\\STATE\\USED\\Sbelt1.jpg"",""stimuli\\STATE\\USED\\Sbelt2.jpg""]","stimuli\STATE\USED\Sbelt1.jpg","stimuli\STATE\USED\Sbelt1.jpg",""
"","1697","image-slider-response","372","2.0.0","1383237","pjw2f4uz82k","falcon","5","stimuli\STATE\USED\Sbelt1.jpg","","","","","","","","","","","3"
"","2214","html-button-response","373","2.0.0","1385454","pjw2f4uz82k","falcon","1","Which of these items did you see before?","","","","","Test","","true","[""stimuli\\STATE\\USED\\Scoffeemaker2.JPG"",""stimuli\\STATE\\USED\\Scoffeemaker1.JPG""]","stimuli\STATE\USED\Scoffeemaker1.JPG","stimuli\STATE\USED\Scoffeemaker1.JPG",""
"","2030","image-slider-response","374","2.0.0","1387487","pjw2f4uz82k","falcon","4","stimuli\STATE\USED\Scoffeemaker1.JPG","","","","","","","","","","","3"
"","1464","html-button-response","375","2.0.0","1388954","pjw2f4uz82k","falcon","0","Which of these items did you see before?","","","","","Test","","true","[""stimuli\\STATE\\USED\\Spolarbear2.jpg"",""stimuli\\STATE\\USED\\Spolarbear1.jpg""]","stimuli\STATE\USED\Spolarbear2.jpg","stimuli\STATE\USED\Spolarbear2.jpg",""
"","1547","image-slider-response","376","2.0.0","1390504","pjw2f4uz82k","falcon","5","stimuli\STATE\USED\Spolarbear2.jpg","","","","","","","","","","","3"
"","1415","html-button-response","377","2.0.0","1391921","pjw2f4uz82k","falcon","0","Which of these items did you see before?","","","","","Test","","true","[""stimuli\\STATE\\USED\\Sredcabbage1.jpg"",""stimuli\\STATE\\USED\\Sredcabbage2.jpg""]","stimuli\STATE\USED\Sredcabbage1.jpg","stimuli\STATE\USED\Sredcabbage1.jpg",""
"","3164","image-slider-response","378","2.0.0","1395088","pjw2f4uz82k","falcon","3","stimuli\STATE\USED\Sredcabbage1.jpg","","","","","","","","","","","3"
"","814","html-button-response","379","2.0.0","1395904","pjw2f4uz82k","falcon","0","Which of these items did you see before?","","","","","Test","","true","[""stimuli\\STATE\\USED\\Srainbowslice2.jpg"",""stimuli\\STATE\\USED\\Srainbowslice1.jpg""]","stimuli\STATE\USED\Srainbowslice2.jpg","stimuli\STATE\USED\Srainbowslice2.jpg",""
"","1648","image-slider-response","380","2.0.0","1397555","pjw2f4uz82k","falcon","5","stimuli\STATE\USED\Srainbowslice2.jpg","","","","","","","","","","","3"
"","815","html-button-response","381","2.0.0","1398372","pjw2f4uz82k","falcon","0","Which of these items did you see before?","","","","","Test","","true","[""stimuli\\STATE\\USED\\Speppers2.jpg"",""stimuli\\STATE\\USED\\Speppers1.jpg""]","stimuli\STATE\USED\Speppers2.jpg","stimuli\STATE\USED\Speppers2.jpg",""
"","1247","image-slider-response","382","2.0.0","1399622","pjw2f4uz82k","falcon","5","stimuli\STATE\USED\Speppers2.jpg","","","","","","","","","","","3"
"","3015","html-button-response","383","2.0.0","1402639","pjw2f4uz82k","falcon","1","Which of these items did you see before?","","","","","Test","","true","[""stimuli\\EXEMPLAR\\USED\\Epeppers1.jpg"",""stimuli\\EXEMPLAR\\USED\\Epeppers2.jpg""]","stimuli\EXEMPLAR\USED\Epeppers2.jpg","stimuli\EXEMPLAR\USED\Epeppers2.jpg",""
"","1696","image-slider-response","384","2.0.0","1404339","pjw2f4uz82k","falcon","1","stimuli\EXEMPLAR\USED\Epeppers2.jpg","","","","","","","","","","","3"
"","1248","html-button-response","385","2.0.0","1405589","pjw2f4uz82k","falcon","1","Which of these items did you see before?","","","","","Test","","true","[""stimuli\\STATE\\USED\\Spatiotable2.jpg"",""stimuli\\STATE\\USED\\Spatiotable1.jpg""]","stimuli\STATE\USED\Spatiotable1.jpg","stimuli\STATE\USED\Spatiotable1.jpg",""
"","1813","image-slider-response","386","2.0.0","1407406","pjw2f4uz82k","falcon","5","stimuli\STATE\USED\Spatiotable1.jpg","","","","","","","","","","","3"
"","1315","html-button-response","387","2.0.0","1408723","pjw2f4uz82k","falcon","1","Which of these items did you see before?","","","","","Test","","true","[""stimuli\\EXEMPLAR\\USED\\Estarfish2.jpg"",""stimuli\\EXEMPLAR\\USED\\Estarfish1.jpg""]","stimuli\EXEMPLAR\USED\Estarfish1.jpg","stimuli\EXEMPLAR\USED\Estarfish1.jpg",""
"","1446","image-slider-response","388","2.0.0","1410173","pjw2f4uz82k","falcon","4","stimuli\EXEMPLAR\USED\Estarfish1.jpg","","","","","","","","","","","3"
"","1515","html-button-response","389","2.0.0","1411689","pjw2f4uz82k","falcon","1","Which of these items did you see before?","","","","","Test","","true","[""stimuli\\STATE\\USED\\Sumbrella2.jpg"",""stimuli\\STATE\\USED\\Sumbrella1.jpg""]","stimuli\STATE\USED\Sumbrella1.jpg","stimuli\STATE\USED\Sumbrella1.jpg",""
"","3013","image-slider-response","390","2.0.0","1414706","pjw2f4uz82k","falcon","2","stimuli\STATE\USED\Sumbrella1.jpg","","","","","","","","","","","3"
"","1131","html-button-response","391","2.0.0","1415839","pjw2f4uz82k","falcon","0","Which of these items did you see before?","","","","","Test","","true","[""stimuli\\EXEMPLAR\\USED\\Econe1.jpg"",""stimuli\\EXEMPLAR\\USED\\Econe2.jpg""]","stimuli\EXEMPLAR\USED\Econe1.jpg","stimuli\EXEMPLAR\USED\Econe1.jpg",""
"","3148","image-slider-response","392","2.0.0","1418990","pjw2f4uz82k","falcon","3","stimuli\EXEMPLAR\USED\Econe1.jpg","","","","","","","","","","","3"
"","1031","html-button-response","393","2.0.0","1420023","pjw2f4uz82k","falcon","1","Which of these items did you see before?","","","","","Test","","true","[""stimuli\\EXEMPLAR\\USED\\Esantahat2.jpg"",""stimuli\\EXEMPLAR\\USED\\Esantahat1.jpg""]","stimuli\EXEMPLAR\USED\Esantahat1.jpg","stimuli\EXEMPLAR\USED\Esantahat1.jpg",""
"","1563","image-slider-response","394","2.0.0","1421590","pjw2f4uz82k","falcon","5","stimuli\EXEMPLAR\USED\Esantahat1.jpg","","","","","","","","","","","3"
"","1314","html-button-response","395","2.0.0","1422906","pjw2f4uz82k","falcon","0","Which of these items did you see before?","","","","","Test","","true","[""stimuli\\STATE\\USED\\Sbureau2.JPG"",""stimuli\\STATE\\USED\\Sbureau1.JPG""]","stimuli\STATE\USED\Sbureau2.JPG","stimuli\STATE\USED\Sbureau2.JPG",""
"","2830","image-slider-response","396","2.0.0","1425739","pjw2f4uz82k","falcon","5","stimuli\STATE\USED\Sbureau2.JPG","","","","","","","","","","","3"
"","2232","html-button-response","397","2.0.0","1427973","pjw2f4uz82k","falcon","1","Which of these items did you see before?","","","","","Test","","false","[""stimuli\\STATE\\USED\\Scateringtray1.jpg"",""stimuli\\STATE\\USED\\Scateringtray2.jpg""]","stimuli\STATE\USED\Scateringtray1.jpg","stimuli\STATE\USED\Scateringtray2.jpg",""
"","4363","image-slider-response","398","2.0.0","1432340","pjw2f4uz82k","falcon","2","stimuli\STATE\USED\Scateringtray2.jpg","","","","","","","","","","","3"
"","1498","html-button-response","399","2.0.0","1433840","pjw2f4uz82k","falcon","0","Which of these items did you see before?","","","","","Test","","true","[""stimuli\\EXEMPLAR\\USED\\Eguitar2.jpg"",""stimuli\\EXEMPLAR\\USED\\Eguitar1.jpg""]","stimuli\EXEMPLAR\USED\Eguitar2.jpg","stimuli\EXEMPLAR\USED\Eguitar2.jpg",""
"","1580","image-slider-response","400","2.0.0","1435424","pjw2f4uz82k","falcon","4","stimuli\EXEMPLAR\USED\Eguitar2.jpg","","","","","","","","","","","3"
"","931","html-button-response","401","2.0.0","1436357","pjw2f4uz82k","falcon","1","Which of these items did you see before?","","","","","Test","","true","[""stimuli\\STATE\\USED\\Sbooks1.JPG"",""stimuli\\STATE\\USED\\Sbooks2.JPG""]","stimuli\STATE\USED\Sbooks2.JPG","stimuli\STATE\USED\Sbooks2.JPG",""
"","1530","image-slider-response","402","2.0.0","1437890","pjw2f4uz82k","falcon","5","stimuli\STATE\USED\Sbooks2.JPG","","","","","","","","","","","3"
"","1064","html-button-response","403","2.0.0","1438957","pjw2f4uz82k","falcon","1","Which of these items did you see before?","","","","","Test","","true","[""stimuli\\EXEMPLAR\\USED\\Eicecream1.jpg"",""stimuli\\EXEMPLAR\\USED\\Eicecream2.jpg""]","stimuli\EXEMPLAR\USED\Eicecream2.jpg","stimuli\EXEMPLAR\USED\Eicecream2.jpg",""
"","1679","image-slider-response","404","2.0.0","1440640","pjw2f4uz82k","falcon","5","stimuli\EXEMPLAR\USED\Eicecream2.jpg","","","","","","","","","","","3"
"","1848","html-button-response","405","2.0.0","1442490","pjw2f4uz82k","falcon","1","Which of these items did you see before?","","","","","Test","","true","[""stimuli\\EXEMPLAR\\USED\\Epiano1.jpg"",""stimuli\\EXEMPLAR\\USED\\Epiano2.jpg""]","stimuli\EXEMPLAR\USED\Epiano2.jpg","stimuli\EXEMPLAR\USED\Epiano2.jpg",""
"","1214","image-slider-response","406","2.0.0","1443707","pjw2f4uz82k","falcon","4","stimuli\EXEMPLAR\USED\Epiano2.jpg","","","","","","","","","","","3"
"","998","html-button-response","407","2.0.0","1444707","pjw2f4uz82k","falcon","1","Which of these items did you see before?","","","","","Test","","true","[""stimuli\\EXEMPLAR\\USED\\Emoney1.jpg"",""stimuli\\EXEMPLAR\\USED\\Emoney2.jpg""]","stimuli\EXEMPLAR\USED\Emoney2.jpg","stimuli\EXEMPLAR\USED\Emoney2.jpg",""
"","1296","image-slider-response","408","2.0.0","1446007","pjw2f4uz82k","falcon","5","stimuli\EXEMPLAR\USED\Emoney2.jpg","","","","","","","","","","","3"
"","1715","html-button-response","409","2.0.0","1447723","pjw2f4uz82k","falcon","0","Which of these items did you see before?","","","","","Test","","true","[""stimuli\\STATE\\USED\\Scontainer2.JPG"",""stimuli\\STATE\\USED\\Scontainer1.JPG""]","stimuli\STATE\USED\Scontainer2.JPG","stimuli\STATE\USED\Scontainer2.JPG",""
"","1164","image-slider-response","410","2.0.0","1448890","pjw2f4uz82k","falcon","3","stimuli\STATE\USED\Scontainer2.JPG","","","","","","","","","","","3"
"","4664","html-button-response","411","2.0.0","1453557","pjw2f4uz82k","falcon","0","Which of these items did you see before?","","","","","Test","","true","[""stimuli\\EXEMPLAR\\USED\\Emuffin2.jpg"",""stimuli\\EXEMPLAR\\USED\\Emuffin1.jpg""]","stimuli\EXEMPLAR\USED\Emuffin2.jpg","stimuli\EXEMPLAR\USED\Emuffin2.jpg",""
"","1513","image-slider-response","412","2.0.0","1455073","pjw2f4uz82k","falcon","2","stimuli\EXEMPLAR\USED\Emuffin2.jpg","","","","","","","","","","","3"
"","998","html-button-response","413","2.0.0","1456073","pjw2f4uz82k","falcon","0","Which of these items did you see before?","","","","","Test","","true","[""stimuli\\EXEMPLAR\\USED\\Ebrick1.jpg"",""stimuli\\EXEMPLAR\\USED\\Ebrick2.jpg""]","stimuli\EXEMPLAR\USED\Ebrick1.jpg","stimuli\EXEMPLAR\USED\Ebrick1.jpg",""
"","1730","image-slider-response","414","2.0.0","1457806","pjw2f4uz82k","falcon","5","stimuli\EXEMPLAR\USED\Ebrick1.jpg","","","","","","","","","","","3"
"","1049","html-button-response","415","2.0.0","1458857","pjw2f4uz82k","falcon","1","Which of these items did you see before?","","","","","Test","","true","[""stimuli\\STATE\\USED\\Shandshake1.JPG"",""stimuli\\STATE\\USED\\Shandshake2.JPG""]","stimuli\STATE\USED\Shandshake2.JPG","stimuli\STATE\USED\Shandshake2.JPG",""
"","1262","image-slider-response","416","2.0.0","1460123","pjw2f4uz82k","falcon","5","stimuli\STATE\USED\Shandshake2.JPG","","","","","","","","","","","3"
"","3748","html-button-response","417","2.0.0","1463874","pjw2f4uz82k","falcon","0","Which of these items did you see before?","","","","","Test","","false","[""stimuli\\STATE\\USED\\Spestle2.jpg"",""stimuli\\STATE\\USED\\Spestle1.jpg""]","stimuli\STATE\USED\Spestle1.jpg","stimuli\STATE\USED\Spestle2.jpg",""
"","1880","image-slider-response","418","2.0.0","1465757","pjw2f4uz82k","falcon","1","stimuli\STATE\USED\Spestle2.jpg","","","","","","","","","","","3"
"","1281","html-button-response","419","2.0.0","1467040","pjw2f4uz82k","falcon","0","Which of these items did you see before?","","","","","Test","","true","[""stimuli\\STATE\\USED\\Sapplesgreenbasket1.jpg"",""stimuli\\STATE\\USED\\Sapplesgreenbasket2.jpg""]","stimuli\STATE\USED\Sapplesgreenbasket1.jpg","stimuli\STATE\USED\Sapplesgreenbasket1.jpg",""
"","2446","image-slider-response","420","2.0.0","1469490","pjw2f4uz82k","falcon","2","stimuli\STATE\USED\Sapplesgreenbasket1.jpg","","","","","","","","","","","3"
"","1648","html-button-response","421","2.0.0","1471140","pjw2f4uz82k","falcon","0","Which of these items did you see before?","","","","","Test","","true","[""stimuli\\STATE\\USED\\Sscales1.jpg"",""stimuli\\STATE\\USED\\Sscales2.jpg""]","stimuli\STATE\USED\Sscales1.jpg","stimuli\STATE\USED\Sscales1.jpg",""
"","1997","image-slider-response","422","2.0.0","1473140","pjw2f4uz82k","falcon","3","stimuli\STATE\USED\Sscales1.jpg","","","","","","","","","","","3"
"","1015","html-button-response","423","2.0.0","1474157","pjw2f4uz82k","falcon","1","Which of these items did you see before?","","","","","Test","","true","[""stimuli\\EXEMPLAR\\USED\\Ebinoculars2.jpg"",""stimuli\\EXEMPLAR\\USED\\Ebinoculars1.jpg""]","stimuli\EXEMPLAR\USED\Ebinoculars1.jpg","stimuli\EXEMPLAR\USED\Ebinoculars1.jpg",""
"","1130","image-slider-response","424","2.0.0","1475290","pjw2f4uz82k","falcon","5","stimuli\EXEMPLAR\USED\Ebinoculars1.jpg","","","","","","","","","","","3"
"","1798","html-button-response","425","2.0.0","1477091","pjw2f4uz82k","falcon","0","Which of these items did you see before?","","","","","Test","","true","[""stimuli\\EXEMPLAR\\USED\\Ehorn2.jpg"",""stimuli\\EXEMPLAR\\USED\\Ehorn1.jpg""]","stimuli\EXEMPLAR\USED\Ehorn2.jpg","stimuli\EXEMPLAR\USED\Ehorn2.jpg",""
"","1380","image-slider-response","426","2.0.0","1478473","pjw2f4uz82k","falcon","2","stimuli\EXEMPLAR\USED\Ehorn2.jpg","","","","","","","","","","","3"
"","1831","html-button-response","427","2.0.0","1480307","pjw2f4uz82k","falcon","0","Which of these items did you see before?","","","","","Test","","true","[""stimuli\\STATE\\USED\\Smedicaltape2.jpg"",""stimuli\\STATE\\USED\\Smedicaltape1.jpg""]","stimuli\STATE\USED\Smedicaltape2.jpg","stimuli\STATE\USED\Smedicaltape2.jpg",""
"","2280","image-slider-response","428","2.0.0","1482590","pjw2f4uz82k","falcon","2","stimuli\STATE\USED\Smedicaltape2.jpg","","","","","","","","","","","3"
"","981","html-button-response","429","2.0.0","1483574","pjw2f4uz82k","falcon","0","Which of these items did you see before?","","","","","Test","","false","[""stimuli\\EXEMPLAR\\USED\\Eswimsuit2.jpg"",""stimuli\\EXEMPLAR\\USED\\Eswimsuit1.jpg""]","stimuli\EXEMPLAR\USED\Eswimsuit1.jpg","stimuli\EXEMPLAR\USED\Eswimsuit2.jpg",""
"","2046","image-slider-response","430","2.0.0","1485623","pjw2f4uz82k","falcon","1","stimuli\EXEMPLAR\USED\Eswimsuit2.jpg","","","","","","","","","","","3"
"","1131","html-button-response","431","2.0.0","1486757","pjw2f4uz82k","falcon","0","Which of these items did you see before?","","","","","Test","","true","[""stimuli\\EXEMPLAR\\USED\\Ebunny1.jpg"",""stimuli\\EXEMPLAR\\USED\\Ebunny2.jpg""]","stimuli\EXEMPLAR\USED\Ebunny1.jpg","stimuli\EXEMPLAR\USED\Ebunny1.jpg",""
"","1063","image-slider-response","432","2.0.0","1487823","pjw2f4uz82k","falcon","4","stimuli\EXEMPLAR\USED\Ebunny1.jpg","","","","","","","","","","","3"
"","848","html-button-response","433","2.0.0","1488674","pjw2f4uz82k","falcon","0","Which of these items did you see before?","","","","","Test","","true","[""stimuli\\STATE\\USED\\Sapple2.jpg"",""stimuli\\STATE\\USED\\Sapple1.jpg""]","stimuli\STATE\USED\Sapple2.jpg","stimuli\STATE\USED\Sapple2.jpg",""
"","1164","image-slider-response","434","2.0.0","1489841","pjw2f4uz82k","falcon","5","stimuli\STATE\USED\Sapple2.jpg","","","","","","","","","","","3"
"","2314","html-button-response","435","2.0.0","1492157","pjw2f4uz82k","falcon","1","Which of these items did you see before?","","","","","Test","","true","[""stimuli\\EXEMPLAR\\USED\\Etoyhand1.jpg"",""stimuli\\EXEMPLAR\\USED\\Etoyhand2.jpg""]","stimuli\EXEMPLAR\USED\Etoyhand2.jpg","stimuli\EXEMPLAR\USED\Etoyhand2.jpg",""
"","2797","image-slider-response","436","2.0.0","1494957","pjw2f4uz82k","falcon","1","stimuli\EXEMPLAR\USED\Etoyhand2.jpg","","","","","","","","","","","3"
"","1348","html-button-response","437","2.0.0","1496307","pjw2f4uz82k","falcon","0","Which of these items did you see before?","","","","","Test","","true","[""stimuli\\STATE\\USED\\Sdishwasher1.jpg"",""stimuli\\STATE\\USED\\Sdishwasher2.jpg""]","stimuli\STATE\USED\Sdishwasher1.jpg","stimuli\STATE\USED\Sdishwasher1.jpg",""
"","2763","image-slider-response","438","2.0.0","1499074","pjw2f4uz82k","falcon","3","stimuli\STATE\USED\Sdishwasher1.jpg","","","","","","","","","","","3"
"","2048","html-button-response","439","2.0.0","1501124","pjw2f4uz82k","falcon","1","Which of these items did you see before?","","","","","Test","","false","[""stimuli\\STATE\\USED\\Spumpkinpie2.jpg"",""stimuli\\STATE\\USED\\Spumpkinpie1.jpg""]","stimuli\STATE\USED\Spumpkinpie2.jpg","stimuli\STATE\USED\Spumpkinpie1.jpg",""
"","2097","image-slider-response","440","2.0.0","1503224","pjw2f4uz82k","falcon","1","stimuli\STATE\USED\Spumpkinpie1.jpg","","","","","","","","","","","3"
"","1481","html-button-response","441","2.0.0","1504707","pjw2f4uz82k","falcon","0","Which of these items did you see before?","","","","","Test","","true","[""stimuli\\EXEMPLAR\\USED\\Eplate1.jpg"",""stimuli\\EXEMPLAR\\USED\\Eplate2.jpg""]","stimuli\EXEMPLAR\USED\Eplate1.jpg","stimuli\EXEMPLAR\USED\Eplate1.jpg",""
"","1347","image-slider-response","442","2.0.0","1506057","pjw2f4uz82k","falcon","1","stimuli\EXEMPLAR\USED\Eplate1.jpg","","","","","","","","","","","3"
"","2764","html-button-response","443","2.0.0","1508824","pjw2f4uz82k","falcon","1","Which of these items did you see before?","","","","","Test","","true","[""stimuli\\EXEMPLAR\\USED\\Etrophy2.jpg"",""stimuli\\EXEMPLAR\\USED\\Etrophy1.jpg""]","stimuli\EXEMPLAR\USED\Etrophy1.jpg","stimuli\EXEMPLAR\USED\Etrophy1.jpg",""
"","1780","image-slider-response","444","2.0.0","1510607","pjw2f4uz82k","falcon","1","stimuli\EXEMPLAR\USED\Etrophy1.jpg","","","","","","","","","","","3"
"","1165","html-button-response","445","2.0.0","1511774","pjw2f4uz82k","falcon","0","Which of these items did you see before?","","","","","Test","","true","[""stimuli\\STATE\\USED\\Sseats2.jpg"",""stimuli\\STATE\\USED\\Sseats1.jpg""]","stimuli\STATE\USED\Sseats2.jpg","stimuli\STATE\USED\Sseats2.jpg",""
"","1663","image-slider-response","446","2.0.0","1513440","pjw2f4uz82k","falcon","1","stimuli\STATE\USED\Sseats2.jpg","","","","","","","","","","","3"
"","1248","html-button-response","447","2.0.0","1514690","pjw2f4uz82k","falcon","0","Which of these items did you see before?","","","","","Test","","true","[""stimuli\\STATE\\USED\\Sskull2.jpg"",""stimuli\\STATE\\USED\\Sskull1.jpg""]","stimuli\STATE\USED\Sskull2.jpg","stimuli\STATE\USED\Sskull2.jpg",""
"","1497","image-slider-response","448","2.0.0","1516190","pjw2f4uz82k","falcon","5","stimuli\STATE\USED\Sskull2.jpg","","","","","","","","","","","3"
"","15459","survey-text","449","2.0.0","1531670","pjw2f4uz82k","falcon","{""experiment_purpose"":""memorization "",""Q1"":""color, shapes, and repetition"",""technical_issues"":""no""}","","","","","","","","","","","",""
