"success","rt","trial_type","trial_index","plugin_version","time_elapsed","random_id","participant","response","stimulus","timeout","failed_images","failed_audio","failed_video","trial_phase","repeated","correct","choice_images","correct_image","choice","slider_start"
"true","1276","fullscreen","0","2.0.0","2285","pllo1t2f1nf","jaguar","","","","","","","","","","","","",""
"","2006","survey-text","1","2.0.0","4320","pllo1t2f1nf","jaguar","{""participant_id"":""jaguar""}","","","","","","","","","","","",""
"","1348","html-keyboard-response","2","2.0.0","5669","pllo1t2f1nf","jaguar","j","<p>Welcome to the Massive Memory Experiment. Press any key to move on. </p>","","","","","","","","","","",""
"","1595","html-keyboard-response","3","2.0.0","7266","pllo1t2f1nf","jaguar","j","
      <div style='width:900px;margin: auto;'><p>In the first section you will see a stream of images, with fixation crosses in between each image.</p>
      <p>Each image will remain on screen for 2 seconds. Your job is to detect images that you have seen before within the experiment. Whenever you see an image that you have seen previously <b>at any point in the stream of images</b>, press the spacebar.</p>
      <p>We will let you know if you have correctly or falsely clicked the spacebar on an image by changing the color of the fixation cross.</p>
      <p>If you press the spacebar correctly (the image really did appear earlier), the fixation cross will turn green. If you pressed the spacebar incorrectly, the fixation cross will turn red.</p>
      <p>Please watch carefully to detect the images that show up again!</p>
      <p>Press any key to start.</p></div>
    ","","","","","","","","","","",""
"true","","preload","4","2.0.0","9197","pllo1t2f1nf","jaguar","","","false","[]","[]","[]","","","","","","",""
"","null","image-keyboard-response","5","2.0.0","11205","pllo1t2f1nf","jaguar","null","stimuli\EXEMPLAR\USED\Echopsticks1.jpg","","","","","Memory","false","null","","","",""
"","null","html-keyboard-response","6","2.0.0","11709","pllo1t2f1nf","jaguar","null","<div style=""font-size:60px; color: black;"">+</div>","","","","","","","","","","",""
"","null","image-keyboard-response","7","2.0.0","13718","pllo1t2f1nf","jaguar","null","stimuli\STATE\USED\Sbriefcasemetal1.JPG","","","","","Memory","false","null","","","",""
"","null","html-keyboard-response","8","2.0.0","14221","pllo1t2f1nf","jaguar","null","<div style=""font-size:60px; color: black;"">+</div>","","","","","","","","","","",""
"","null","image-keyboard-response","9","2.0.0","16230","pllo1t2f1nf","jaguar","null","stimuli\EXEMPLAR\USED\Ebell1.jpg","","","","","Memory","false","null","","","",""
"","null","html-keyboard-response","10","2.0.0","16733","pllo1t2f1nf","jaguar","null","<div style=""font-size:60px; color: black;"">+</div>","","","","","","","","","","",""
"","null","image-keyboard-response","11","2.0.0","18743","pllo1t2f1nf","jaguar","null","stimuli\EXEMPLAR\USED\Etoywrench2.jpg","","","","","Memory","false","null","","","",""
"","null","html-keyboard-response","12","2.0.0","19246","pllo1t2f1nf","jaguar","null","<div style=""font-size:60px; color: black;"">+</div>","","","","","","","","","","",""
"","null","image-keyboard-response","13","2.0.0","21253","pllo1t2f1nf","jaguar","null","stimuli\EXEMPLAR\USED\Echopsticks1.jpg","","","","","Memory","true","null","","","",""
"","null","html-keyboard-response","14","2.0.0","21756","pllo1t2f1nf","jaguar","null","<div style=""font-size:60px; color: black;"">+</div>","","","","","","","","","","",""
"","null","image-keyboard-response","15","2.0.0","23768","pllo1t2f1nf","jaguar","null","stimuli\STATE\USED\Sapplesgreenbasket1.jpg","","","","","Memory","false","null","","","",""
"","null","html-keyboard-response","16","2.0.0","24271","pllo1t2f1nf","jaguar","null","<div style=""font-size:60px; color: black;"">+</div>","","","","","","","","","","",""
"","null","image-keyboard-response","17","2.0.0","26283","pllo1t2f1nf","jaguar","null","stimuli\EXEMPLAR\USED\Earch1.jpg","","","","","Memory","false","null","","","",""
"","null","html-keyboard-response","18","2.0.0","26785","pllo1t2f1nf","jaguar","null","<div style=""font-size:60px; color: black;"">+</div>","","","","","","","","","","",""
"","null","image-keyboard-response","19","2.0.0","28796","pllo1t2f1nf","jaguar","null","stimuli\STATE\USED\Scontainer2.JPG","","","","","Memory","false","null","","","",""
"","null","html-keyboard-response","20","2.0.0","29299","pllo1t2f1nf","jaguar","null","<div style=""font-size:60px; color: black;"">+</div>","","","","","","","","","","",""
"","null","image-keyboard-response","21","2.0.0","31309","pllo1t2f1nf","jaguar","null","stimuli\EXEMPLAR\USED\Erazor2.jpg","","","","","Memory","false","null","","","",""
"","null","html-keyboard-response","22","2.0.0","31812","pllo1t2f1nf","jaguar","null","<div style=""font-size:60px; color: black;"">+</div>","","","","","","","","","","",""
"","null","image-keyboard-response","23","2.0.0","33822","pllo1t2f1nf","jaguar","null","stimuli\EXEMPLAR\USED\Eheadphones1.jpg","","","","","Memory","false","null","","","",""
"","null","html-keyboard-response","24","2.0.0","34324","pllo1t2f1nf","jaguar","null","<div style=""font-size:60px; color: black;"">+</div>","","","","","","","","","","",""
"","null","image-keyboard-response","25","2.0.0","36334","pllo1t2f1nf","jaguar","null","stimuli\EXEMPLAR\USED\Erabbit1.jpg","","","","","Memory","false","null","","","",""
"","null","html-keyboard-response","26","2.0.0","36837","pllo1t2f1nf","jaguar","null","<div style=""font-size:60px; color: black;"">+</div>","","","","","","","","","","",""
"","null","image-keyboard-response","27","2.0.0","38846","pllo1t2f1nf","jaguar","null","stimuli\STATE\USED\Scontainer2.JPG","","","","","Memory","true","null","","","",""
"","null","html-keyboard-response","28","2.0.0","39348","pllo1t2f1nf","jaguar","null","<div style=""font-size:60px; color: black;"">+</div>","","","","","","","","","","",""
"","null","image-keyboard-response","29","2.0.0","41359","pllo1t2f1nf","jaguar","null","stimuli\STATE\USED\Sclipboard1.jpg","","","","","Memory","false","null","","","",""
"","null","html-keyboard-response","30","2.0.0","41861","pllo1t2f1nf","jaguar","null","<div style=""font-size:60px; color: black;"">+</div>","","","","","","","","","","",""
"","null","image-keyboard-response","31","2.0.0","43871","pllo1t2f1nf","jaguar","null","stimuli\STATE\USED\Spestle1.jpg","","","","","Memory","false","null","","","",""
"","null","html-keyboard-response","32","2.0.0","44374","pllo1t2f1nf","jaguar","null","<div style=""font-size:60px; color: black;"">+</div>","","","","","","","","","","",""
"","null","image-keyboard-response","33","2.0.0","46385","pllo1t2f1nf","jaguar","null","stimuli\STATE\USED\Sdresser2.jpg","","","","","Memory","false","null","","","",""
"","null","html-keyboard-response","34","2.0.0","46887","pllo1t2f1nf","jaguar","null","<div style=""font-size:60px; color: black;"">+</div>","","","","","","","","","","",""
"","null","image-keyboard-response","35","2.0.0","48896","pllo1t2f1nf","jaguar","null","stimuli\STATE\USED\Sskull2.jpg","","","","","Memory","false","null","","","",""
"","null","html-keyboard-response","36","2.0.0","49399","pllo1t2f1nf","jaguar","null","<div style=""font-size:60px; color: black;"">+</div>","","","","","","","","","","",""
"","null","image-keyboard-response","37","2.0.0","51408","pllo1t2f1nf","jaguar","null","stimuli\STATE\USED\Sgiftbag2.jpg","","","","","Memory","false","null","","","",""
"","null","html-keyboard-response","38","2.0.0","51911","pllo1t2f1nf","jaguar","null","<div style=""font-size:60px; color: black;"">+</div>","","","","","","","","","","",""
"","null","image-keyboard-response","39","2.0.0","53921","pllo1t2f1nf","jaguar","null","stimuli\EXEMPLAR\USED\Ewineglass1.jpg","","","","","Memory","false","null","","","",""
"","null","html-keyboard-response","40","2.0.0","54424","pllo1t2f1nf","jaguar","null","<div style=""font-size:60px; color: black;"">+</div>","","","","","","","","","","",""
"","null","image-keyboard-response","41","2.0.0","56433","pllo1t2f1nf","jaguar","null","stimuli\STATE\USED\Sdresser2.jpg","","","","","Memory","true","null","","","",""
"","null","html-keyboard-response","42","2.0.0","56935","pllo1t2f1nf","jaguar","null","<div style=""font-size:60px; color: black;"">+</div>","","","","","","","","","","",""
"","null","image-keyboard-response","43","2.0.0","58947","pllo1t2f1nf","jaguar","null","stimuli\EXEMPLAR\USED\Eguitar1.jpg","","","","","Memory","false","null","","","",""
"","null","html-keyboard-response","44","2.0.0","59448","pllo1t2f1nf","jaguar","null","<div style=""font-size:60px; color: black;"">+</div>","","","","","","","","","","",""
"","null","image-keyboard-response","45","2.0.0","61458","pllo1t2f1nf","jaguar","null","stimuli\EXEMPLAR\USED\Eholepunch1.jpg","","","","","Memory","false","null","","","",""
"","null","html-keyboard-response","46","2.0.0","61960","pllo1t2f1nf","jaguar","null","<div style=""font-size:60px; color: black;"">+</div>","","","","","","","","","","",""
"","null","image-keyboard-response","47","2.0.0","63971","pllo1t2f1nf","jaguar","null","stimuli\STATE\USED\Sschoolbag2.JPG","","","","","Memory","false","null","","","",""
"","null","html-keyboard-response","48","2.0.0","64473","pllo1t2f1nf","jaguar","null","<div style=""font-size:60px; color: black;"">+</div>","","","","","","","","","","",""
"","null","image-keyboard-response","49","2.0.0","66483","pllo1t2f1nf","jaguar","null","stimuli\EXEMPLAR\USED\Ebinoculars2.jpg","","","","","Memory","false","null","","","",""
"","null","html-keyboard-response","50","2.0.0","66985","pllo1t2f1nf","jaguar","null","<div style=""font-size:60px; color: black;"">+</div>","","","","","","","","","","",""
"","null","image-keyboard-response","51","2.0.0","68995","pllo1t2f1nf","jaguar","null","stimuli\STATE\USED\Scoffeemaker2.JPG","","","","","Memory","false","null","","","",""
"","null","html-keyboard-response","52","2.0.0","69498","pllo1t2f1nf","jaguar","null","<div style=""font-size:60px; color: black;"">+</div>","","","","","","","","","","",""
"","null","image-keyboard-response","53","2.0.0","71509","pllo1t2f1nf","jaguar","null","stimuli\EXEMPLAR\USED\Eholepunch1.jpg","","","","","Memory","true","null","","","",""
"","null","html-keyboard-response","54","2.0.0","72012","pllo1t2f1nf","jaguar","null","<div style=""font-size:60px; color: black;"">+</div>","","","","","","","","","","",""
"","null","image-keyboard-response","55","2.0.0","74021","pllo1t2f1nf","jaguar","null","stimuli\STATE\USED\Sapplesredbasket1.JPG","","","","","Memory","false","null","","","",""
"","null","html-keyboard-response","56","2.0.0","74523","pllo1t2f1nf","jaguar","null","<div style=""font-size:60px; color: black;"">+</div>","","","","","","","","","","",""
"","null","image-keyboard-response","57","2.0.0","76534","pllo1t2f1nf","jaguar","null","stimuli\STATE\USED\Sflask1.jpg","","","","","Memory","false","null","","","",""
"","null","html-keyboard-response","58","2.0.0","77037","pllo1t2f1nf","jaguar","null","<div style=""font-size:60px; color: black;"">+</div>","","","","","","","","","","",""
"","null","image-keyboard-response","59","2.0.0","79049","pllo1t2f1nf","jaguar","null","stimuli\EXEMPLAR\USED\Ebread1.jpg","","","","","Memory","false","null","","","",""
"","null","html-keyboard-response","60","2.0.0","79552","pllo1t2f1nf","jaguar","null","<div style=""font-size:60px; color: black;"">+</div>","","","","","","","","","","",""
"","null","image-keyboard-response","61","2.0.0","81562","pllo1t2f1nf","jaguar","null","stimuli\STATE\USED\Sbelt2.jpg","","","","","Memory","false","null","","","",""
"","null","html-keyboard-response","62","2.0.0","82065","pllo1t2f1nf","jaguar","null","<div style=""font-size:60px; color: black;"">+</div>","","","","","","","","","","",""
"","null","image-keyboard-response","63","2.0.0","84074","pllo1t2f1nf","jaguar","null","stimuli\STATE\USED\Shandmirror2.jpg","","","","","Memory","false","null","","","",""
"","null","html-keyboard-response","64","2.0.0","84577","pllo1t2f1nf","jaguar","null","<div style=""font-size:60px; color: black;"">+</div>","","","","","","","","","","",""
"","null","image-keyboard-response","65","2.0.0","86587","pllo1t2f1nf","jaguar","null","stimuli\EXEMPLAR\USED\Esantahat2.jpg","","","","","Memory","false","null","","","",""
"","null","html-keyboard-response","66","2.0.0","87090","pllo1t2f1nf","jaguar","null","<div style=""font-size:60px; color: black;"">+</div>","","","","","","","","","","",""
"","null","image-keyboard-response","67","2.0.0","89100","pllo1t2f1nf","jaguar","null","stimuli\STATE\USED\Sdishes2.JPG","","","","","Memory","false","null","","","",""
"","null","html-keyboard-response","68","2.0.0","89603","pllo1t2f1nf","jaguar","null","<div style=""font-size:60px; color: black;"">+</div>","","","","","","","","","","",""
"","null","image-keyboard-response","69","2.0.0","91615","pllo1t2f1nf","jaguar","null","stimuli\EXEMPLAR\USED\Eicecream1.jpg","","","","","Memory","false","null","","","",""
"","null","html-keyboard-response","70","2.0.0","92118","pllo1t2f1nf","jaguar","null","<div style=""font-size:60px; color: black;"">+</div>","","","","","","","","","","",""
"","null","image-keyboard-response","71","2.0.0","94129","pllo1t2f1nf","jaguar","null","stimuli\EXEMPLAR\USED\Edinosaur1.jpg","","","","","Memory","false","null","","","",""
"","null","html-keyboard-response","72","2.0.0","94632","pllo1t2f1nf","jaguar","null","<div style=""font-size:60px; color: black;"">+</div>","","","","","","","","","","",""
"","null","image-keyboard-response","73","2.0.0","96640","pllo1t2f1nf","jaguar","null","stimuli\STATE\USED\Seggplant1.jpg","","","","","Memory","false","null","","","",""
"","null","html-keyboard-response","74","2.0.0","97142","pllo1t2f1nf","jaguar","null","<div style=""font-size:60px; color: black;"">+</div>","","","","","","","","","","",""
"","null","image-keyboard-response","75","2.0.0","99151","pllo1t2f1nf","jaguar","null","stimuli\STATE\USED\Sdishes2.JPG","","","","","Memory","true","null","","","",""
"","null","html-keyboard-response","76","2.0.0","99654","pllo1t2f1nf","jaguar","null","<div style=""font-size:60px; color: black;"">+</div>","","","","","","","","","","",""
"","null","image-keyboard-response","77","2.0.0","101665","pllo1t2f1nf","jaguar","null","stimuli\EXEMPLAR\USED\Ehorn2.jpg","","","","","Memory","false","null","","","",""
"","null","html-keyboard-response","78","2.0.0","102167","pllo1t2f1nf","jaguar","null","<div style=""font-size:60px; color: black;"">+</div>","","","","","","","","","","",""
"","null","image-keyboard-response","79","2.0.0","104176","pllo1t2f1nf","jaguar","null","stimuli\EXEMPLAR\USED\Eglobe1.jpg","","","","","Memory","false","null","","","",""
"","null","html-keyboard-response","80","2.0.0","104678","pllo1t2f1nf","jaguar","null","<div style=""font-size:60px; color: black;"">+</div>","","","","","","","","","","",""
"","null","image-keyboard-response","81","2.0.0","106686","pllo1t2f1nf","jaguar","null","stimuli\EXEMPLAR\USED\Etoykeys2.JPG","","","","","Memory","false","null","","","",""
"","null","html-keyboard-response","82","2.0.0","107189","pllo1t2f1nf","jaguar","null","<div style=""font-size:60px; color: black;"">+</div>","","","","","","","","","","",""
"","null","image-keyboard-response","83","2.0.0","109198","pllo1t2f1nf","jaguar","null","stimuli\EXEMPLAR\USED\Emuffler2.jpg","","","","","Memory","false","null","","","",""
"","null","html-keyboard-response","84","2.0.0","109701","pllo1t2f1nf","jaguar","null","<div style=""font-size:60px; color: black;"">+</div>","","","","","","","","","","",""
"","null","image-keyboard-response","85","2.0.0","111711","pllo1t2f1nf","jaguar","null","stimuli\STATE\USED\Sbrushes1.jpg","","","","","Memory","false","null","","","",""
"","null","html-keyboard-response","86","2.0.0","112213","pllo1t2f1nf","jaguar","null","<div style=""font-size:60px; color: black;"">+</div>","","","","","","","","","","",""
"","null","image-keyboard-response","87","2.0.0","114222","pllo1t2f1nf","jaguar","null","stimuli\EXEMPLAR\USED\Eglobe1.jpg","","","","","Memory","true","null","","","",""
"","null","html-keyboard-response","88","2.0.0","114725","pllo1t2f1nf","jaguar","null","<div style=""font-size:60px; color: black;"">+</div>","","","","","","","","","","",""
"","null","image-keyboard-response","89","2.0.0","116734","pllo1t2f1nf","jaguar","null","stimuli\EXEMPLAR\USED\Egame1.jpg","","","","","Memory","false","null","","","",""
"","null","html-keyboard-response","90","2.0.0","117236","pllo1t2f1nf","jaguar","null","<div style=""font-size:60px; color: black;"">+</div>","","","","","","","","","","",""
"","null","image-keyboard-response","91","2.0.0","119246","pllo1t2f1nf","jaguar","null","stimuli\EXEMPLAR\USED\Emedal1.jpg","","","","","Memory","false","null","","","",""
"","null","html-keyboard-response","92","2.0.0","119748","pllo1t2f1nf","jaguar","null","<div style=""font-size:60px; color: black;"">+</div>","","","","","","","","","","",""
"","null","image-keyboard-response","93","2.0.0","121757","pllo1t2f1nf","jaguar","null","stimuli\EXEMPLAR\USED\Eturtle2.jpg","","","","","Memory","false","null","","","",""
"","null","html-keyboard-response","94","2.0.0","122259","pllo1t2f1nf","jaguar","null","<div style=""font-size:60px; color: black;"">+</div>","","","","","","","","","","",""
"","null","image-keyboard-response","95","2.0.0","124269","pllo1t2f1nf","jaguar","null","stimuli\STATE\USED\Scooker1.jpg","","","","","Memory","false","null","","","",""
"","null","html-keyboard-response","96","2.0.0","124772","pllo1t2f1nf","jaguar","null","<div style=""font-size:60px; color: black;"">+</div>","","","","","","","","","","",""
"","null","image-keyboard-response","97","2.0.0","126781","pllo1t2f1nf","jaguar","null","stimuli\STATE\USED\Spadlock2.jpg","","","","","Memory","false","null","","","",""
"","null","html-keyboard-response","98","2.0.0","127284","pllo1t2f1nf","jaguar","null","<div style=""font-size:60px; color: black;"">+</div>","","","","","","","","","","",""
"","null","image-keyboard-response","99","2.0.0","129294","pllo1t2f1nf","jaguar","null","stimuli\EXEMPLAR\USED\Ebicycle1.jpg","","","","","Memory","false","null","","","",""
"","null","html-keyboard-response","100","2.0.0","129796","pllo1t2f1nf","jaguar","null","<div style=""font-size:60px; color: black;"">+</div>","","","","","","","","","","",""
"","null","image-keyboard-response","101","2.0.0","131804","pllo1t2f1nf","jaguar","null","stimuli\EXEMPLAR\USED\Eturtle2.jpg","","","","","Memory","true","null","","","",""
"","null","html-keyboard-response","102","2.0.0","132306","pllo1t2f1nf","jaguar","null","<div style=""font-size:60px; color: black;"">+</div>","","","","","","","","","","",""
"","null","image-keyboard-response","103","2.0.0","134315","pllo1t2f1nf","jaguar","null","stimuli\EXEMPLAR\USED\Etractor1.jpg","","","","","Memory","false","null","","","",""
"","null","html-keyboard-response","104","2.0.0","134817","pllo1t2f1nf","jaguar","null","<div style=""font-size:60px; color: black;"">+</div>","","","","","","","","","","",""
"","null","image-keyboard-response","105","2.0.0","136828","pllo1t2f1nf","jaguar","null","stimuli\STATE\USED\Sdishwasher2.jpg","","","","","Memory","false","null","","","",""
"","null","html-keyboard-response","106","2.0.0","137329","pllo1t2f1nf","jaguar","null","<div style=""font-size:60px; color: black;"">+</div>","","","","","","","","","","",""
"","2924","html-button-response","107","2.0.0","140257","pllo1t2f1nf","jaguar","0","Are you still there?","","","","","Attention Check","","","","","",""
"","null","image-keyboard-response","108","2.0.0","142266","pllo1t2f1nf","jaguar","null","stimuli\EXEMPLAR\USED\Esunglasses2.jpg","","","","","Memory","false","null","","","",""
"","null","html-keyboard-response","109","2.0.0","142768","pllo1t2f1nf","jaguar","null","<div style=""font-size:60px; color: black;"">+</div>","","","","","","","","","","",""
"","null","image-keyboard-response","110","2.0.0","144779","pllo1t2f1nf","jaguar","null","stimuli\STATE\USED\Spie2.JPG","","","","","Memory","false","null","","","",""
"","null","html-keyboard-response","111","2.0.0","145281","pllo1t2f1nf","jaguar","null","<div style=""font-size:60px; color: black;"">+</div>","","","","","","","","","","",""
"","null","image-keyboard-response","112","2.0.0","147291","pllo1t2f1nf","jaguar","null","stimuli\EXEMPLAR\USED\Ecamera2.jpg","","","","","Memory","false","null","","","",""
"","null","html-keyboard-response","113","2.0.0","147793","pllo1t2f1nf","jaguar","null","<div style=""font-size:60px; color: black;"">+</div>","","","","","","","","","","",""
"","null","image-keyboard-response","114","2.0.0","149804","pllo1t2f1nf","jaguar","null","stimuli\STATE\USED\Sseatbelt2.jpg","","","","","Memory","false","null","","","",""
"","null","html-keyboard-response","115","2.0.0","150306","pllo1t2f1nf","jaguar","null","<div style=""font-size:60px; color: black;"">+</div>","","","","","","","","","","",""
"","null","image-keyboard-response","116","2.0.0","152315","pllo1t2f1nf","jaguar","null","stimuli\EXEMPLAR\USED\Esunglasses2.jpg","","","","","Memory","true","null","","","",""
"","null","html-keyboard-response","117","2.0.0","152817","pllo1t2f1nf","jaguar","null","<div style=""font-size:60px; color: black;"">+</div>","","","","","","","","","","",""
"","null","image-keyboard-response","118","2.0.0","154828","pllo1t2f1nf","jaguar","null","stimuli\STATE\USED\Sbreadslice2.jpg","","","","","Memory","false","null","","","",""
"","null","html-keyboard-response","119","2.0.0","155329","pllo1t2f1nf","jaguar","null","<div style=""font-size:60px; color: black;"">+</div>","","","","","","","","","","",""
"","null","image-keyboard-response","120","2.0.0","157339","pllo1t2f1nf","jaguar","null","stimuli\STATE\USED\Sbook1.JPG","","","","","Memory","false","null","","","",""
"","null","html-keyboard-response","121","2.0.0","157842","pllo1t2f1nf","jaguar","null","<div style=""font-size:60px; color: black;"">+</div>","","","","","","","","","","",""
"","null","image-keyboard-response","122","2.0.0","159851","pllo1t2f1nf","jaguar","null","stimuli\EXEMPLAR\USED\Eswimsuit2.jpg","","","","","Memory","false","null","","","",""
"","null","html-keyboard-response","123","2.0.0","160354","pllo1t2f1nf","jaguar","null","<div style=""font-size:60px; color: black;"">+</div>","","","","","","","","","","",""
"","null","image-keyboard-response","124","2.0.0","162364","pllo1t2f1nf","jaguar","null","stimuli\STATE\USED\Spatiotable2.jpg","","","","","Memory","false","null","","","",""
"","null","html-keyboard-response","125","2.0.0","162867","pllo1t2f1nf","jaguar","null","<div style=""font-size:60px; color: black;"">+</div>","","","","","","","","","","",""
"","null","image-keyboard-response","126","2.0.0","164876","pllo1t2f1nf","jaguar","null","stimuli\EXEMPLAR\USED\Enozzle2.jpg","","","","","Memory","false","null","","","",""
"","null","html-keyboard-response","127","2.0.0","165379","pllo1t2f1nf","jaguar","null","<div style=""font-size:60px; color: black;"">+</div>","","","","","","","","","","",""
"","null","image-keyboard-response","128","2.0.0","167388","pllo1t2f1nf","jaguar","null","stimuli\EXEMPLAR\USED\Emitt1.jpg","","","","","Memory","false","null","","","",""
"","null","html-keyboard-response","129","2.0.0","167891","pllo1t2f1nf","jaguar","null","<div style=""font-size:60px; color: black;"">+</div>","","","","","","","","","","",""
"","null","image-keyboard-response","130","2.0.0","169901","pllo1t2f1nf","jaguar","null","stimuli\STATE\USED\Sbabytoy2.JPG","","","","","Memory","false","null","","","",""
"","null","html-keyboard-response","131","2.0.0","170403","pllo1t2f1nf","jaguar","null","<div style=""font-size:60px; color: black;"">+</div>","","","","","","","","","","",""
"","null","image-keyboard-response","132","2.0.0","172415","pllo1t2f1nf","jaguar","null","stimuli\EXEMPLAR\USED\Ehoe2.jpg","","","","","Memory","false","null","","","",""
"","null","html-keyboard-response","133","2.0.0","172918","pllo1t2f1nf","jaguar","null","<div style=""font-size:60px; color: black;"">+</div>","","","","","","","","","","",""
"","null","image-keyboard-response","134","2.0.0","174929","pllo1t2f1nf","jaguar","null","stimuli\EXEMPLAR\USED\Efishbowl2.jpg","","","","","Memory","false","null","","","",""
"","null","html-keyboard-response","135","2.0.0","175432","pllo1t2f1nf","jaguar","null","<div style=""font-size:60px; color: black;"">+</div>","","","","","","","","","","",""
"","null","image-keyboard-response","136","2.0.0","177441","pllo1t2f1nf","jaguar","null","stimuli\EXEMPLAR\USED\Emitt1.jpg","","","","","Memory","true","null","","","",""
"","null","html-keyboard-response","137","2.0.0","177943","pllo1t2f1nf","jaguar","null","<div style=""font-size:60px; color: black;"">+</div>","","","","","","","","","","",""
"","null","image-keyboard-response","138","2.0.0","179953","pllo1t2f1nf","jaguar","null","stimuli\STATE\USED\Shairbrush1.jpg","","","","","Memory","false","null","","","",""
"","null","html-keyboard-response","139","2.0.0","180456","pllo1t2f1nf","jaguar","null","<div style=""font-size:60px; color: black;"">+</div>","","","","","","","","","","",""
"","null","image-keyboard-response","140","2.0.0","182466","pllo1t2f1nf","jaguar","null","stimuli\EXEMPLAR\USED\Etrophy2.jpg","","","","","Memory","false","null","","","",""
"","null","html-keyboard-response","141","2.0.0","182969","pllo1t2f1nf","jaguar","null","<div style=""font-size:60px; color: black;"">+</div>","","","","","","","","","","",""
"","null","image-keyboard-response","142","2.0.0","184978","pllo1t2f1nf","jaguar","null","stimuli\STATE\USED\Sbrie1.JPG","","","","","Memory","false","null","","","",""
"","null","html-keyboard-response","143","2.0.0","185480","pllo1t2f1nf","jaguar","null","<div style=""font-size:60px; color: black;"">+</div>","","","","","","","","","","",""
"","null","image-keyboard-response","144","2.0.0","187491","pllo1t2f1nf","jaguar","null","stimuli\EXEMPLAR\USED\Edispenser1.jpg","","","","","Memory","false","null","","","",""
"","null","html-keyboard-response","145","2.0.0","187993","pllo1t2f1nf","jaguar","null","<div style=""font-size:60px; color: black;"">+</div>","","","","","","","","","","",""
"","null","image-keyboard-response","146","2.0.0","190005","pllo1t2f1nf","jaguar","null","stimuli\EXEMPLAR\USED\Ehanger2.jpg","","","","","Memory","false","null","","","",""
"","null","html-keyboard-response","147","2.0.0","190508","pllo1t2f1nf","jaguar","null","<div style=""font-size:60px; color: black;"">+</div>","","","","","","","","","","",""
"","null","image-keyboard-response","148","2.0.0","192519","pllo1t2f1nf","jaguar","null","stimuli\EXEMPLAR\USED\Etoyplane2.jpg","","","","","Memory","false","null","","","",""
"","null","html-keyboard-response","149","2.0.0","193022","pllo1t2f1nf","jaguar","null","<div style=""font-size:60px; color: black;"">+</div>","","","","","","","","","","",""
"","null","image-keyboard-response","150","2.0.0","195032","pllo1t2f1nf","jaguar","null","stimuli\STATE\USED\Sbrie1.JPG","","","","","Memory","true","null","","","",""
"","null","html-keyboard-response","151","2.0.0","195534","pllo1t2f1nf","jaguar","null","<div style=""font-size:60px; color: black;"">+</div>","","","","","","","","","","",""
"","null","image-keyboard-response","152","2.0.0","197543","pllo1t2f1nf","jaguar","null","stimuli\EXEMPLAR\USED\Econe2.jpg","","","","","Memory","false","null","","","",""
"","null","html-keyboard-response","153","2.0.0","198046","pllo1t2f1nf","jaguar","null","<div style=""font-size:60px; color: black;"">+</div>","","","","","","","","","","",""
"","null","image-keyboard-response","154","2.0.0","200055","pllo1t2f1nf","jaguar","null","stimuli\EXEMPLAR\USED\Etrowel1.jpg","","","","","Memory","false","null","","","",""
"","null","html-keyboard-response","155","2.0.0","200558","pllo1t2f1nf","jaguar","null","<div style=""font-size:60px; color: black;"">+</div>","","","","","","","","","","",""
"","null","image-keyboard-response","156","2.0.0","202571","pllo1t2f1nf","jaguar","null","stimuli\STATE\USED\Sgrinder1.jpg","","","","","Memory","false","null","","","",""
"","null","html-keyboard-response","157","2.0.0","203073","pllo1t2f1nf","jaguar","null","<div style=""font-size:60px; color: black;"">+</div>","","","","","","","","","","",""
"","null","image-keyboard-response","158","2.0.0","205082","pllo1t2f1nf","jaguar","null","stimuli\EXEMPLAR\USED\Epliers2.jpg","","","","","Memory","false","null","","","",""
"","null","html-keyboard-response","159","2.0.0","205584","pllo1t2f1nf","jaguar","null","<div style=""font-size:60px; color: black;"">+</div>","","","","","","","","","","",""
"","null","image-keyboard-response","160","2.0.0","207593","pllo1t2f1nf","jaguar","null","stimuli\EXEMPLAR\USED\Econe2.jpg","","","","","Memory","true","null","","","",""
"","null","html-keyboard-response","161","2.0.0","208095","pllo1t2f1nf","jaguar","null","<div style=""font-size:60px; color: black;"">+</div>","","","","","","","","","","",""
"","null","image-keyboard-response","162","2.0.0","210106","pllo1t2f1nf","jaguar","null","stimuli\STATE\USED\Sscissors2.JPG","","","","","Memory","false","null","","","",""
"","null","html-keyboard-response","163","2.0.0","210609","pllo1t2f1nf","jaguar","null","<div style=""font-size:60px; color: black;"">+</div>","","","","","","","","","","",""
"","null","image-keyboard-response","164","2.0.0","212619","pllo1t2f1nf","jaguar","null","stimuli\STATE\USED\Spiggybank1.jpg","","","","","Memory","false","null","","","",""
"","null","html-keyboard-response","165","2.0.0","213121","pllo1t2f1nf","jaguar","null","<div style=""font-size:60px; color: black;"">+</div>","","","","","","","","","","",""
"","null","image-keyboard-response","166","2.0.0","215131","pllo1t2f1nf","jaguar","null","stimuli\STATE\USED\Sbooks1.JPG","","","","","Memory","false","null","","","",""
"","null","html-keyboard-response","167","2.0.0","215633","pllo1t2f1nf","jaguar","null","<div style=""font-size:60px; color: black;"">+</div>","","","","","","","","","","",""
"","null","image-keyboard-response","168","2.0.0","217643","pllo1t2f1nf","jaguar","null","stimuli\EXEMPLAR\USED\Epotatochips2.jpg","","","","","Memory","false","null","","","",""
"","null","html-keyboard-response","169","2.0.0","218145","pllo1t2f1nf","jaguar","null","<div style=""font-size:60px; color: black;"">+</div>","","","","","","","","","","",""
"","null","image-keyboard-response","170","2.0.0","220153","pllo1t2f1nf","jaguar","null","stimuli\EXEMPLAR\USED\Echeeses2.jpg","","","","","Memory","false","null","","","",""
"","null","html-keyboard-response","171","2.0.0","220655","pllo1t2f1nf","jaguar","null","<div style=""font-size:60px; color: black;"">+</div>","","","","","","","","","","",""
"","null","image-keyboard-response","172","2.0.0","222666","pllo1t2f1nf","jaguar","null","stimuli\EXEMPLAR\USED\Efolder2.jpg","","","","","Memory","false","null","","","",""
"","null","html-keyboard-response","173","2.0.0","223168","pllo1t2f1nf","jaguar","null","<div style=""font-size:60px; color: black;"">+</div>","","","","","","","","","","",""
"","null","image-keyboard-response","174","2.0.0","225179","pllo1t2f1nf","jaguar","null","stimuli\STATE\USED\Stiger1.jpg","","","","","Memory","false","null","","","",""
"","null","html-keyboard-response","175","2.0.0","225681","pllo1t2f1nf","jaguar","null","<div style=""font-size:60px; color: black;"">+</div>","","","","","","","","","","",""
"","null","image-keyboard-response","176","2.0.0","227691","pllo1t2f1nf","jaguar","null","stimuli\EXEMPLAR\USED\Ebunny2.jpg","","","","","Memory","false","null","","","",""
"","null","html-keyboard-response","177","2.0.0","228193","pllo1t2f1nf","jaguar","null","<div style=""font-size:60px; color: black;"">+</div>","","","","","","","","","","",""
"","null","image-keyboard-response","178","2.0.0","230204","pllo1t2f1nf","jaguar","null","stimuli\EXEMPLAR\USED\Ebrick2.jpg","","","","","Memory","false","null","","","",""
"","null","html-keyboard-response","179","2.0.0","230707","pllo1t2f1nf","jaguar","null","<div style=""font-size:60px; color: black;"">+</div>","","","","","","","","","","",""
"","null","image-keyboard-response","180","2.0.0","232713","pllo1t2f1nf","jaguar","null","stimuli\EXEMPLAR\USED\Efolder2.jpg","","","","","Memory","true","null","","","",""
"","null","html-keyboard-response","181","2.0.0","233215","pllo1t2f1nf","jaguar","null","<div style=""font-size:60px; color: black;"">+</div>","","","","","","","","","","",""
"","null","image-keyboard-response","182","2.0.0","235224","pllo1t2f1nf","jaguar","null","stimuli\STATE\USED\Saccordionsmall2.JPG","","","","","Memory","false","null","","","",""
"","null","html-keyboard-response","183","2.0.0","235727","pllo1t2f1nf","jaguar","null","<div style=""font-size:60px; color: black;"">+</div>","","","","","","","","","","",""
"","null","image-keyboard-response","184","2.0.0","237736","pllo1t2f1nf","jaguar","null","stimuli\STATE\USED\Sboxwhite2.jpg","","","","","Memory","false","null","","","",""
"","null","html-keyboard-response","185","2.0.0","238239","pllo1t2f1nf","jaguar","null","<div style=""font-size:60px; color: black;"">+</div>","","","","","","","","","","",""
"","null","image-keyboard-response","186","2.0.0","240247","pllo1t2f1nf","jaguar","null","stimuli\STATE\USED\Swaffleiron1.jpg","","","","","Memory","false","null","","","",""
"","null","html-keyboard-response","187","2.0.0","240749","pllo1t2f1nf","jaguar","null","<div style=""font-size:60px; color: black;"">+</div>","","","","","","","","","","",""
"","null","image-keyboard-response","188","2.0.0","242758","pllo1t2f1nf","jaguar","null","stimuli\EXEMPLAR\USED\Escroll1.jpg","","","","","Memory","false","null","","","",""
"","null","html-keyboard-response","189","2.0.0","243260","pllo1t2f1nf","jaguar","null","<div style=""font-size:60px; color: black;"">+</div>","","","","","","","","","","",""
"","null","image-keyboard-response","190","2.0.0","245271","pllo1t2f1nf","jaguar","null","stimuli\EXEMPLAR\USED\Eplate2.jpg","","","","","Memory","false","null","","","",""
"","null","html-keyboard-response","191","2.0.0","245774","pllo1t2f1nf","jaguar","null","<div style=""font-size:60px; color: black;"">+</div>","","","","","","","","","","",""
"","null","image-keyboard-response","192","2.0.0","247785","pllo1t2f1nf","jaguar","null","stimuli\STATE\USED\Sredcabbage2.jpg","","","","","Memory","false","null","","","",""
"","null","html-keyboard-response","193","2.0.0","248288","pllo1t2f1nf","jaguar","null","<div style=""font-size:60px; color: black;"">+</div>","","","","","","","","","","",""
"","null","image-keyboard-response","194","2.0.0","250297","pllo1t2f1nf","jaguar","null","stimuli\STATE\USED\Scateringtray2.jpg","","","","","Memory","false","null","","","",""
"","null","html-keyboard-response","195","2.0.0","250799","pllo1t2f1nf","jaguar","null","<div style=""font-size:60px; color: black;"">+</div>","","","","","","","","","","",""
"","null","image-keyboard-response","196","2.0.0","252810","pllo1t2f1nf","jaguar","null","stimuli\STATE\USED\Sumbrella1.jpg","","","","","Memory","false","null","","","",""
"","null","html-keyboard-response","197","2.0.0","253312","pllo1t2f1nf","jaguar","null","<div style=""font-size:60px; color: black;"">+</div>","","","","","","","","","","",""
"","null","image-keyboard-response","198","2.0.0","255321","pllo1t2f1nf","jaguar","null","stimuli\STATE\USED\Sscanner2.JPG","","","","","Memory","false","null","","","",""
"","null","html-keyboard-response","199","2.0.0","255823","pllo1t2f1nf","jaguar","null","<div style=""font-size:60px; color: black;"">+</div>","","","","","","","","","","",""
"","null","image-keyboard-response","200","2.0.0","257834","pllo1t2f1nf","jaguar","null","stimuli\EXEMPLAR\USED\Ewheelchair1.jpg","","","","","Memory","false","null","","","",""
"","null","html-keyboard-response","201","2.0.0","258336","pllo1t2f1nf","jaguar","null","<div style=""font-size:60px; color: black;"">+</div>","","","","","","","","","","",""
"","null","image-keyboard-response","202","2.0.0","260347","pllo1t2f1nf","jaguar","null","stimuli\EXEMPLAR\USED\Estapler2.jpg","","","","","Memory","false","null","","","",""
"","null","html-keyboard-response","203","2.0.0","260849","pllo1t2f1nf","jaguar","null","<div style=""font-size:60px; color: black;"">+</div>","","","","","","","","","","",""
"","null","image-keyboard-response","204","2.0.0","262860","pllo1t2f1nf","jaguar","null","stimuli\STATE\USED\Slockbox1.jpg","","","","","Memory","false","null","","","",""
"","null","html-keyboard-response","205","2.0.0","263363","pllo1t2f1nf","jaguar","null","<div style=""font-size:60px; color: black;"">+</div>","","","","","","","","","","",""
"","null","image-keyboard-response","206","2.0.0","265373","pllo1t2f1nf","jaguar","null","stimuli\STATE\USED\Sseats1.jpg","","","","","Memory","false","null","","","",""
"","null","html-keyboard-response","207","2.0.0","265875","pllo1t2f1nf","jaguar","null","<div style=""font-size:60px; color: black;"">+</div>","","","","","","","","","","",""
"","null","image-keyboard-response","208","2.0.0","267884","pllo1t2f1nf","jaguar","null","stimuli\EXEMPLAR\USED\Eremote2.jpg","","","","","Memory","false","null","","","",""
"","null","html-keyboard-response","209","2.0.0","268386","pllo1t2f1nf","jaguar","null","<div style=""font-size:60px; color: black;"">+</div>","","","","","","","","","","",""
"","2472","html-button-response","210","2.0.0","270861","pllo1t2f1nf","jaguar","0","Are you still there?","","","","","Attention Check","","","","","",""
"","null","image-keyboard-response","211","2.0.0","272872","pllo1t2f1nf","jaguar","null","stimuli\EXEMPLAR\USED\Elog2.jpg","","","","","Memory","false","null","","","",""
"","null","html-keyboard-response","212","2.0.0","273374","pllo1t2f1nf","jaguar","null","<div style=""font-size:60px; color: black;"">+</div>","","","","","","","","","","",""
"","null","image-keyboard-response","213","2.0.0","275385","pllo1t2f1nf","jaguar","null","stimuli\STATE\USED\Sbureau2.JPG","","","","","Memory","false","null","","","",""
"","null","html-keyboard-response","214","2.0.0","275887","pllo1t2f1nf","jaguar","null","<div style=""font-size:60px; color: black;"">+</div>","","","","","","","","","","",""
"","null","image-keyboard-response","215","2.0.0","277898","pllo1t2f1nf","jaguar","null","stimuli\EXEMPLAR\USED\Epeppers1.jpg","","","","","Memory","false","null","","","",""
"","null","html-keyboard-response","216","2.0.0","278400","pllo1t2f1nf","jaguar","null","<div style=""font-size:60px; color: black;"">+</div>","","","","","","","","","","",""
"","null","image-keyboard-response","217","2.0.0","280410","pllo1t2f1nf","jaguar","null","stimuli\EXEMPLAR\USED\Eballoon2.jpg","","","","","Memory","false","null","","","",""
"","null","html-keyboard-response","218","2.0.0","280913","pllo1t2f1nf","jaguar","null","<div style=""font-size:60px; color: black;"">+</div>","","","","","","","","","","",""
"","null","image-keyboard-response","219","2.0.0","282921","pllo1t2f1nf","jaguar","null","stimuli\EXEMPLAR\USED\Elog2.jpg","","","","","Memory","true","null","","","",""
"","null","html-keyboard-response","220","2.0.0","283423","pllo1t2f1nf","jaguar","null","<div style=""font-size:60px; color: black;"">+</div>","","","","","","","","","","",""
"","null","image-keyboard-response","221","2.0.0","285433","pllo1t2f1nf","jaguar","null","stimuli\EXEMPLAR\USED\Ehelmet1.jpg","","","","","Memory","false","null","","","",""
"","null","html-keyboard-response","222","2.0.0","285936","pllo1t2f1nf","jaguar","null","<div style=""font-size:60px; color: black;"">+</div>","","","","","","","","","","",""
"","null","image-keyboard-response","223","2.0.0","287946","pllo1t2f1nf","jaguar","null","stimuli\STATE\USED\Sbox1.jpg","","","","","Memory","false","null","","","",""
"","null","html-keyboard-response","224","2.0.0","288448","pllo1t2f1nf","jaguar","null","<div style=""font-size:60px; color: black;"">+</div>","","","","","","","","","","",""
"","null","image-keyboard-response","225","2.0.0","290458","pllo1t2f1nf","jaguar","null","stimuli\STATE\USED\Spolarbear2.jpg","","","","","Memory","false","null","","","",""
"","null","html-keyboard-response","226","2.0.0","290961","pllo1t2f1nf","jaguar","null","<div style=""font-size:60px; color: black;"">+</div>","","","","","","","","","","",""
"","null","image-keyboard-response","227","2.0.0","292971","pllo1t2f1nf","jaguar","null","stimuli\STATE\USED\Sdonut2.jpg","","","","","Memory","false","null","","","",""
"","null","html-keyboard-response","228","2.0.0","293473","pllo1t2f1nf","jaguar","null","<div style=""font-size:60px; color: black;"">+</div>","","","","","","","","","","",""
"","null","image-keyboard-response","229","2.0.0","295483","pllo1t2f1nf","jaguar","null","stimuli\EXEMPLAR\USED\Ehelmet1.jpg","","","","","Memory","true","null","","","",""
"","null","html-keyboard-response","230","2.0.0","295985","pllo1t2f1nf","jaguar","null","<div style=""font-size:60px; color: black;"">+</div>","","","","","","","","","","",""
"","null","image-keyboard-response","231","2.0.0","297997","pllo1t2f1nf","jaguar","null","stimuli\STATE\USED\Sdrum1.jpg","","","","","Memory","false","null","","","",""
"","null","html-keyboard-response","232","2.0.0","298500","pllo1t2f1nf","jaguar","null","<div style=""font-size:60px; color: black;"">+</div>","","","","","","","","","","",""
"","null","image-keyboard-response","233","2.0.0","300513","pllo1t2f1nf","jaguar","null","stimuli\STATE\USED\Sbarnmailbox1.jpg","","","","","Memory","false","null","","","",""
"","null","html-keyboard-response","234","2.0.0","301015","pllo1t2f1nf","jaguar","null","<div style=""font-size:60px; color: black;"">+</div>","","","","","","","","","","",""
"","null","image-keyboard-response","235","2.0.0","303026","pllo1t2f1nf","jaguar","null","stimuli\STATE\USED\Sphone1.JPG","","","","","Memory","false","null","","","",""
"","null","html-keyboard-response","236","2.0.0","303528","pllo1t2f1nf","jaguar","null","<div style=""font-size:60px; color: black;"">+</div>","","","","","","","","","","",""
"","null","image-keyboard-response","237","2.0.0","305539","pllo1t2f1nf","jaguar","null","stimuli\STATE\USED\Sgiftbox1.jpg","","","","","Memory","false","null","","","",""
"","null","html-keyboard-response","238","2.0.0","306041","pllo1t2f1nf","jaguar","null","<div style=""font-size:60px; color: black;"">+</div>","","","","","","","","","","",""
"","null","image-keyboard-response","239","2.0.0","308050","pllo1t2f1nf","jaguar","null","stimuli\STATE\USED\Sdrum1.jpg","","","","","Memory","true","null","","","",""
"","null","html-keyboard-response","240","2.0.0","308553","pllo1t2f1nf","jaguar","null","<div style=""font-size:60px; color: black;"">+</div>","","","","","","","","","","",""
"","null","image-keyboard-response","241","2.0.0","310562","pllo1t2f1nf","jaguar","null","stimuli\STATE\USED\Sapple2.jpg","","","","","Memory","false","null","","","",""
"","null","html-keyboard-response","242","2.0.0","311064","pllo1t2f1nf","jaguar","null","<div style=""font-size:60px; color: black;"">+</div>","","","","","","","","","","",""
"","null","image-keyboard-response","243","2.0.0","313076","pllo1t2f1nf","jaguar","null","stimuli\EXEMPLAR\USED\Etongs1.jpg","","","","","Memory","false","null","","","",""
"","null","html-keyboard-response","244","2.0.0","313578","pllo1t2f1nf","jaguar","null","<div style=""font-size:60px; color: black;"">+</div>","","","","","","","","","","",""
"","null","image-keyboard-response","245","2.0.0","315587","pllo1t2f1nf","jaguar","null","stimuli\STATE\USED\Sdryer2.jpg","","","","","Memory","false","null","","","",""
"","null","html-keyboard-response","246","2.0.0","316089","pllo1t2f1nf","jaguar","null","<div style=""font-size:60px; color: black;"">+</div>","","","","","","","","","","",""
"","null","image-keyboard-response","247","2.0.0","318099","pllo1t2f1nf","jaguar","null","stimuli\STATE\USED\Smetronome1.jpg","","","","","Memory","false","null","","","",""
"","null","html-keyboard-response","248","2.0.0","318602","pllo1t2f1nf","jaguar","null","<div style=""font-size:60px; color: black;"">+</div>","","","","","","","","","","",""
"","null","image-keyboard-response","249","2.0.0","320614","pllo1t2f1nf","jaguar","null","stimuli\EXEMPLAR\USED\Echocolatebar2.jpg","","","","","Memory","false","null","","","",""
"","null","html-keyboard-response","250","2.0.0","321117","pllo1t2f1nf","jaguar","null","<div style=""font-size:60px; color: black;"">+</div>","","","","","","","","","","",""
"","null","image-keyboard-response","251","2.0.0","323127","pllo1t2f1nf","jaguar","null","stimuli\STATE\USED\Spotpan2.JPG","","","","","Memory","false","null","","","",""
"","null","html-keyboard-response","252","2.0.0","323630","pllo1t2f1nf","jaguar","null","<div style=""font-size:60px; color: black;"">+</div>","","","","","","","","","","",""
"","null","image-keyboard-response","253","2.0.0","325640","pllo1t2f1nf","jaguar","null","stimuli\STATE\USED\Sdryer2.jpg","","","","","Memory","true","null","","","",""
"","null","html-keyboard-response","254","2.0.0","326142","pllo1t2f1nf","jaguar","null","<div style=""font-size:60px; color: black;"">+</div>","","","","","","","","","","",""
"","null","image-keyboard-response","255","2.0.0","328151","pllo1t2f1nf","jaguar","null","stimuli\EXEMPLAR\USED\Espraybottle2.jpg","","","","","Memory","false","null","","","",""
"","null","html-keyboard-response","256","2.0.0","328653","pllo1t2f1nf","jaguar","null","<div style=""font-size:60px; color: black;"">+</div>","","","","","","","","","","",""
"","null","image-keyboard-response","257","2.0.0","330664","pllo1t2f1nf","jaguar","null","stimuli\EXEMPLAR\USED\Etrain2.jpg","","","","","Memory","false","null","","","",""
"","null","html-keyboard-response","258","2.0.0","331167","pllo1t2f1nf","jaguar","null","<div style=""font-size:60px; color: black;"">+</div>","","","","","","","","","","",""
"","null","image-keyboard-response","259","2.0.0","333177","pllo1t2f1nf","jaguar","null","stimuli\EXEMPLAR\USED\Ecake1.jpg","","","","","Memory","false","null","","","",""
"","null","html-keyboard-response","260","2.0.0","333679","pllo1t2f1nf","jaguar","null","<div style=""font-size:60px; color: black;"">+</div>","","","","","","","","","","",""
"","null","image-keyboard-response","261","2.0.0","335689","pllo1t2f1nf","jaguar","null","stimuli\STATE\USED\Shandshake2.JPG","","","","","Memory","false","null","","","",""
"","null","html-keyboard-response","262","2.0.0","336191","pllo1t2f1nf","jaguar","null","<div style=""font-size:60px; color: black;"">+</div>","","","","","","","","","","",""
"","null","image-keyboard-response","263","2.0.0","338200","pllo1t2f1nf","jaguar","null","stimuli\STATE\USED\Sdie1.jpg","","","","","Memory","false","null","","","",""
"","null","html-keyboard-response","264","2.0.0","338702","pllo1t2f1nf","jaguar","null","<div style=""font-size:60px; color: black;"">+</div>","","","","","","","","","","",""
"","null","image-keyboard-response","265","2.0.0","340714","pllo1t2f1nf","jaguar","null","stimuli\STATE\USED\Sscales1.jpg","","","","","Memory","false","null","","","",""
"","null","html-keyboard-response","266","2.0.0","341216","pllo1t2f1nf","jaguar","null","<div style=""font-size:60px; color: black;"">+</div>","","","","","","","","","","",""
"","null","image-keyboard-response","267","2.0.0","343225","pllo1t2f1nf","jaguar","null","stimuli\EXEMPLAR\USED\Eladder2.jpg","","","","","Memory","false","null","","","",""
"","null","html-keyboard-response","268","2.0.0","343727","pllo1t2f1nf","jaguar","null","<div style=""font-size:60px; color: black;"">+</div>","","","","","","","","","","",""
"","null","image-keyboard-response","269","2.0.0","345737","pllo1t2f1nf","jaguar","null","stimuli\EXEMPLAR\USED\Estarfish1.jpg","","","","","Memory","false","null","","","",""
"","null","html-keyboard-response","270","2.0.0","346240","pllo1t2f1nf","jaguar","null","<div style=""font-size:60px; color: black;"">+</div>","","","","","","","","","","",""
"","null","image-keyboard-response","271","2.0.0","348250","pllo1t2f1nf","jaguar","null","stimuli\STATE\USED\Ssweater1.jpg","","","","","Memory","false","null","","","",""
"","null","html-keyboard-response","272","2.0.0","348752","pllo1t2f1nf","jaguar","null","<div style=""font-size:60px; color: black;"">+</div>","","","","","","","","","","",""
"","null","image-keyboard-response","273","2.0.0","350762","pllo1t2f1nf","jaguar","null","stimuli\STATE\USED\Saccordion1.jpg","","","","","Memory","false","null","","","",""
"","null","html-keyboard-response","274","2.0.0","351265","pllo1t2f1nf","jaguar","null","<div style=""font-size:60px; color: black;"">+</div>","","","","","","","","","","",""
"","null","image-keyboard-response","275","2.0.0","353273","pllo1t2f1nf","jaguar","null","stimuli\EXEMPLAR\USED\Eladder2.jpg","","","","","Memory","true","null","","","",""
"","null","html-keyboard-response","276","2.0.0","353776","pllo1t2f1nf","jaguar","null","<div style=""font-size:60px; color: black;"">+</div>","","","","","","","","","","",""
"","null","image-keyboard-response","277","2.0.0","355788","pllo1t2f1nf","jaguar","null","stimuli\STATE\USED\Schinesefoodbox2.jpg","","","","","Memory","false","null","","","",""
"","null","html-keyboard-response","278","2.0.0","356290","pllo1t2f1nf","jaguar","null","<div style=""font-size:60px; color: black;"">+</div>","","","","","","","","","","",""
"","null","image-keyboard-response","279","2.0.0","358299","pllo1t2f1nf","jaguar","null","stimuli\EXEMPLAR\USED\Epiano2.jpg","","","","","Memory","false","null","","","",""
"","null","html-keyboard-response","280","2.0.0","358802","pllo1t2f1nf","jaguar","null","<div style=""font-size:60px; color: black;"">+</div>","","","","","","","","","","",""
"","null","image-keyboard-response","281","2.0.0","360813","pllo1t2f1nf","jaguar","null","stimuli\EXEMPLAR\USED\Ekayak1.jpg","","","","","Memory","false","null","","","",""
"","null","html-keyboard-response","282","2.0.0","361315","pllo1t2f1nf","jaguar","null","<div style=""font-size:60px; color: black;"">+</div>","","","","","","","","","","",""
"","null","image-keyboard-response","283","2.0.0","363325","pllo1t2f1nf","jaguar","null","stimuli\EXEMPLAR\USED\Eremover2.jpg","","","","","Memory","false","null","","","",""
"","null","html-keyboard-response","284","2.0.0","363828","pllo1t2f1nf","jaguar","null","<div style=""font-size:60px; color: black;"">+</div>","","","","","","","","","","",""
"","null","image-keyboard-response","285","2.0.0","365836","pllo1t2f1nf","jaguar","null","stimuli\STATE\USED\Srainbowslice1.jpg","","","","","Memory","false","null","","","",""
"","null","html-keyboard-response","286","2.0.0","366339","pllo1t2f1nf","jaguar","null","<div style=""font-size:60px; color: black;"">+</div>","","","","","","","","","","",""
"","null","image-keyboard-response","287","2.0.0","368349","pllo1t2f1nf","jaguar","null","stimuli\EXEMPLAR\USED\Epiano2.jpg","","","","","Memory","true","null","","","",""
"","null","html-keyboard-response","288","2.0.0","368851","pllo1t2f1nf","jaguar","null","<div style=""font-size:60px; color: black;"">+</div>","","","","","","","","","","",""
"","null","image-keyboard-response","289","2.0.0","370863","pllo1t2f1nf","jaguar","null","stimuli\STATE\USED\Snapkins2.jpg","","","","","Memory","false","null","","","",""
"","null","html-keyboard-response","290","2.0.0","371365","pllo1t2f1nf","jaguar","null","<div style=""font-size:60px; color: black;"">+</div>","","","","","","","","","","",""
"","null","image-keyboard-response","291","2.0.0","373377","pllo1t2f1nf","jaguar","null","stimuli\EXEMPLAR\USED\Ebracelet1.jpg","","","","","Memory","false","null","","","",""
"","null","html-keyboard-response","292","2.0.0","373879","pllo1t2f1nf","jaguar","null","<div style=""font-size:60px; color: black;"">+</div>","","","","","","","","","","",""
"","null","image-keyboard-response","293","2.0.0","375888","pllo1t2f1nf","jaguar","null","stimuli\STATE\USED\Sjuiceglass1.JPG","","","","","Memory","false","null","","","",""
"","null","html-keyboard-response","294","2.0.0","376390","pllo1t2f1nf","jaguar","null","<div style=""font-size:60px; color: black;"">+</div>","","","","","","","","","","",""
"","null","image-keyboard-response","295","2.0.0","378402","pllo1t2f1nf","jaguar","null","stimuli\EXEMPLAR\USED\Elei2.jpg","","","","","Memory","false","null","","","",""
"","null","html-keyboard-response","296","2.0.0","378905","pllo1t2f1nf","jaguar","null","<div style=""font-size:60px; color: black;"">+</div>","","","","","","","","","","",""
"","null","image-keyboard-response","297","2.0.0","380916","pllo1t2f1nf","jaguar","null","stimuli\EXEMPLAR\USED\Ecalculator1.jpg","","","","","Memory","false","null","","","",""
"","null","html-keyboard-response","298","2.0.0","381418","pllo1t2f1nf","jaguar","null","<div style=""font-size:60px; color: black;"">+</div>","","","","","","","","","","",""
"","null","image-keyboard-response","299","2.0.0","383429","pllo1t2f1nf","jaguar","null","stimuli\STATE\USED\Smedicaltape1.jpg","","","","","Memory","false","null","","","",""
"","null","html-keyboard-response","300","2.0.0","383931","pllo1t2f1nf","jaguar","null","<div style=""font-size:60px; color: black;"">+</div>","","","","","","","","","","",""
"","null","image-keyboard-response","301","2.0.0","385942","pllo1t2f1nf","jaguar","null","stimuli\STATE\USED\Slaptop2.JPG","","","","","Memory","false","null","","","",""
"","null","html-keyboard-response","302","2.0.0","386444","pllo1t2f1nf","jaguar","null","<div style=""font-size:60px; color: black;"">+</div>","","","","","","","","","","",""
"","null","image-keyboard-response","303","2.0.0","388453","pllo1t2f1nf","jaguar","null","stimuli\EXEMPLAR\USED\Elei2.jpg","","","","","Memory","true","null","","","",""
"","null","html-keyboard-response","304","2.0.0","388956","pllo1t2f1nf","jaguar","null","<div style=""font-size:60px; color: black;"">+</div>","","","","","","","","","","",""
"","null","image-keyboard-response","305","2.0.0","390967","pllo1t2f1nf","jaguar","null","stimuli\EXEMPLAR\USED\Eframe1.jpg","","","","","Memory","false","null","","","",""
"","null","html-keyboard-response","306","2.0.0","391469","pllo1t2f1nf","jaguar","null","<div style=""font-size:60px; color: black;"">+</div>","","","","","","","","","","",""
"","null","image-keyboard-response","307","2.0.0","393479","pllo1t2f1nf","jaguar","null","stimuli\STATE\USED\Sdoughhands2.jpg","","","","","Memory","false","null","","","",""
"","null","html-keyboard-response","308","2.0.0","393981","pllo1t2f1nf","jaguar","null","<div style=""font-size:60px; color: black;"">+</div>","","","","","","","","","","",""
"","null","image-keyboard-response","309","2.0.0","395990","pllo1t2f1nf","jaguar","null","stimuli\EXEMPLAR\USED\Eelectricbass2.jpg","","","","","Memory","false","null","","","",""
"","null","html-keyboard-response","310","2.0.0","396493","pllo1t2f1nf","jaguar","null","<div style=""font-size:60px; color: black;"">+</div>","","","","","","","","","","",""
"","null","image-keyboard-response","311","2.0.0","398500","pllo1t2f1nf","jaguar","null","stimuli\EXEMPLAR\USED\Emoney1.jpg","","","","","Memory","false","null","","","",""
"","null","html-keyboard-response","312","2.0.0","399001","pllo1t2f1nf","jaguar","null","<div style=""font-size:60px; color: black;"">+</div>","","","","","","","","","","",""
"","5187","html-button-response","313","2.0.0","404190","pllo1t2f1nf","jaguar","0","Are you still there?","","","","","Attention Check","","","","","",""
"","null","image-keyboard-response","314","2.0.0","406199","pllo1t2f1nf","jaguar","null","stimuli\EXEMPLAR\USED\Ebonzai1.jpg","","","","","Memory","false","null","","","",""
"","null","html-keyboard-response","315","2.0.0","406701","pllo1t2f1nf","jaguar","null","<div style=""font-size:60px; color: black;"">+</div>","","","","","","","","","","",""
"","null","image-keyboard-response","316","2.0.0","408711","pllo1t2f1nf","jaguar","null","stimuli\STATE\USED\Sdoughhands2.jpg","","","","","Memory","true","null","","","",""
"","null","html-keyboard-response","317","2.0.0","409213","pllo1t2f1nf","jaguar","null","<div style=""font-size:60px; color: black;"">+</div>","","","","","","","","","","",""
"","null","image-keyboard-response","318","2.0.0","411224","pllo1t2f1nf","jaguar","null","stimuli\EXEMPLAR\USED\Eteapot2.JPG","","","","","Memory","false","null","","","",""
"","null","html-keyboard-response","319","2.0.0","411726","pllo1t2f1nf","jaguar","null","<div style=""font-size:60px; color: black;"">+</div>","","","","","","","","","","",""
"","null","image-keyboard-response","320","2.0.0","413736","pllo1t2f1nf","jaguar","null","stimuli\STATE\USED\Shandsign2.JPG","","","","","Memory","false","null","","","",""
"","null","html-keyboard-response","321","2.0.0","414239","pllo1t2f1nf","jaguar","null","<div style=""font-size:60px; color: black;"">+</div>","","","","","","","","","","",""
"","null","image-keyboard-response","322","2.0.0","416249","pllo1t2f1nf","jaguar","null","stimuli\STATE\USED\Sphoneold2.jpg","","","","","Memory","false","null","","","",""
"","null","html-keyboard-response","323","2.0.0","416751","pllo1t2f1nf","jaguar","null","<div style=""font-size:60px; color: black;"">+</div>","","","","","","","","","","",""
"","null","image-keyboard-response","324","2.0.0","418762","pllo1t2f1nf","jaguar","null","stimuli\EXEMPLAR\USED\Esuitcase2.jpg","","","","","Memory","false","null","","","",""
"","null","html-keyboard-response","325","2.0.0","419263","pllo1t2f1nf","jaguar","null","<div style=""font-size:60px; color: black;"">+</div>","","","","","","","","","","",""
"","null","image-keyboard-response","326","2.0.0","421273","pllo1t2f1nf","jaguar","null","stimuli\EXEMPLAR\USED\Ehotairballoon2.jpg","","","","","Memory","false","null","","","",""
"","null","html-keyboard-response","327","2.0.0","421775","pllo1t2f1nf","jaguar","null","<div style=""font-size:60px; color: black;"">+</div>","","","","","","","","","","",""
"","null","image-keyboard-response","328","2.0.0","423786","pllo1t2f1nf","jaguar","null","stimuli\STATE\USED\Siron2.jpg","","","","","Memory","false","null","","","",""
"","null","html-keyboard-response","329","2.0.0","424288","pllo1t2f1nf","jaguar","null","<div style=""font-size:60px; color: black;"">+</div>","","","","","","","","","","",""
"","null","image-keyboard-response","330","2.0.0","426298","pllo1t2f1nf","jaguar","null","stimuli\STATE\USED\Srhino2.jpg","","","","","Memory","false","null","","","",""
"","null","html-keyboard-response","331","2.0.0","426800","pllo1t2f1nf","jaguar","null","<div style=""font-size:60px; color: black;"">+</div>","","","","","","","","","","",""
"","null","image-keyboard-response","332","2.0.0","428809","pllo1t2f1nf","jaguar","null","stimuli\EXEMPLAR\USED\Emicroscope2.jpg","","","","","Memory","false","null","","","",""
"","null","html-keyboard-response","333","2.0.0","429312","pllo1t2f1nf","jaguar","null","<div style=""font-size:60px; color: black;"">+</div>","","","","","","","","","","",""
"","null","image-keyboard-response","334","2.0.0","431321","pllo1t2f1nf","jaguar","null","stimuli\EXEMPLAR\USED\Emuffin1.jpg","","","","","Memory","false","null","","","",""
"","null","html-keyboard-response","335","2.0.0","431823","pllo1t2f1nf","jaguar","null","<div style=""font-size:60px; color: black;"">+</div>","","","","","","","","","","",""
"","null","image-keyboard-response","336","2.0.0","433833","pllo1t2f1nf","jaguar","null","stimuli\STATE\USED\Sstoplight2.jpg","","","","","Memory","false","null","","","",""
"","null","html-keyboard-response","337","2.0.0","434335","pllo1t2f1nf","jaguar","null","<div style=""font-size:60px; color: black;"">+</div>","","","","","","","","","","",""
"","null","image-keyboard-response","338","2.0.0","436345","pllo1t2f1nf","jaguar","null","stimuli\STATE\USED\Spumpkinpie2.jpg","","","","","Memory","false","null","","","",""
"","null","html-keyboard-response","339","2.0.0","436847","pllo1t2f1nf","jaguar","null","<div style=""font-size:60px; color: black;"">+</div>","","","","","","","","","","",""
"","null","image-keyboard-response","340","2.0.0","438857","pllo1t2f1nf","jaguar","null","stimuli\STATE\USED\Speppers1.jpg","","","","","Memory","false","null","","","",""
"","null","html-keyboard-response","341","2.0.0","439360","pllo1t2f1nf","jaguar","null","<div style=""font-size:60px; color: black;"">+</div>","","","","","","","","","","",""
"","null","image-keyboard-response","342","2.0.0","441369","pllo1t2f1nf","jaguar","null","stimuli\STATE\USED\Stypewriter2.jpg","","","","","Memory","false","null","","","",""
"","null","html-keyboard-response","343","2.0.0","441872","pllo1t2f1nf","jaguar","null","<div style=""font-size:60px; color: black;"">+</div>","","","","","","","","","","",""
"","null","image-keyboard-response","344","2.0.0","443881","pllo1t2f1nf","jaguar","null","stimuli\EXEMPLAR\USED\Etoyhand1.jpg","","","","","Memory","false","null","","","",""
"","null","html-keyboard-response","345","2.0.0","444383","pllo1t2f1nf","jaguar","null","<div style=""font-size:60px; color: black;"">+</div>","","","","","","","","","","",""
"","null","image-keyboard-response","346","2.0.0","446394","pllo1t2f1nf","jaguar","null","stimuli\STATE\USED\Spicnicbasket1.jpg","","","","","Memory","false","null","","","",""
"","null","html-keyboard-response","347","2.0.0","446896","pllo1t2f1nf","jaguar","null","<div style=""font-size:60px; color: black;"">+</div>","","","","","","","","","","",""
"","7326","html-keyboard-response","348","2.0.0","454222","pllo1t2f1nf","jaguar"," ","
          <p>In the next part of this experiment, you will see 2 images. Please select the image that you recall from the image stream.</p>
          <p>You will also rate your confidence for each image you recall.</p>
          <p>Press any key to start.</p>
        ","","","","","","","","","","",""
"","3506","html-button-response","349","2.0.0","457741","pllo1t2f1nf","jaguar","0","Which of these items did you see before?","","","","","Test","","true","[""stimuli\\EXEMPLAR\\USED\\Etrain2.jpg"",""stimuli\\EXEMPLAR\\USED\\Etrain1.jpg""]","stimuli\EXEMPLAR\USED\Etrain2.jpg","stimuli\EXEMPLAR\USED\Etrain2.jpg",""
"","6776","image-slider-response","350","2.0.0","464525","pllo1t2f1nf","jaguar","3","stimuli\EXEMPLAR\USED\Etrain2.jpg","","","","","","","","","","","3"
"","3138","html-button-response","351","2.0.0","467672","pllo1t2f1nf","jaguar","0","Which of these items did you see before?","","","","","Test","","true","[""stimuli\\STATE\\USED\\Sapple2.jpg"",""stimuli\\STATE\\USED\\Sapple1.jpg""]","stimuli\STATE\USED\Sapple2.jpg","stimuli\STATE\USED\Sapple2.jpg",""
"","9742","image-slider-response","352","2.0.0","477421","pllo1t2f1nf","jaguar","1","stimuli\STATE\USED\Sapple2.jpg","","","","","","","","","","","3"
"","2273","html-button-response","353","2.0.0","479703","pllo1t2f1nf","jaguar","1","Which of these items did you see before?","","","","","Test","","true","[""stimuli\\STATE\\USED\\Sschoolbag1.JPG"",""stimuli\\STATE\\USED\\Sschoolbag2.JPG""]","stimuli\STATE\USED\Sschoolbag2.JPG","stimuli\STATE\USED\Sschoolbag2.JPG",""
"","2208","image-slider-response","354","2.0.0","481918","pllo1t2f1nf","jaguar","1","stimuli\STATE\USED\Sschoolbag2.JPG","","","","","","","","","","","3"
"","2728","html-button-response","355","2.0.0","484655","pllo1t2f1nf","jaguar","0","Which of these items did you see before?","","","","","Test","","false","[""stimuli\\EXEMPLAR\\USED\\Ehorn1.jpg"",""stimuli\\EXEMPLAR\\USED\\Ehorn2.jpg""]","stimuli\EXEMPLAR\USED\Ehorn2.jpg","stimuli\EXEMPLAR\USED\Ehorn1.jpg",""
"","14357","image-slider-response","356","2.0.0","499019","pllo1t2f1nf","jaguar","1","stimuli\EXEMPLAR\USED\Ehorn1.jpg","","","","","","","","","","","3"
"","1536","html-button-response","357","2.0.0","500564","pllo1t2f1nf","jaguar","0","Which of these items did you see before?","","","","","Test","","true","[""stimuli\\STATE\\USED\\Srhino2.jpg"",""stimuli\\STATE\\USED\\Srhino1.jpg""]","stimuli\STATE\USED\Srhino2.jpg","stimuli\STATE\USED\Srhino2.jpg",""
"","1897","image-slider-response","358","2.0.0","502468","pllo1t2f1nf","jaguar","4","stimuli\STATE\USED\Srhino2.jpg","","","","","","","","","","","3"
"","2093","html-button-response","359","2.0.0","504570","pllo1t2f1nf","jaguar","0","Which of these items did you see before?","","","","","Test","","true","[""stimuli\\EXEMPLAR\\USED\\Ewineglass1.jpg"",""stimuli\\EXEMPLAR\\USED\\Ewineglass2.jpg""]","stimuli\EXEMPLAR\USED\Ewineglass1.jpg","stimuli\EXEMPLAR\USED\Ewineglass1.jpg",""
"","2353","image-slider-response","360","2.0.0","506930","pllo1t2f1nf","jaguar","1","stimuli\EXEMPLAR\USED\Ewineglass1.jpg","","","","","","","","","","","3"
"","2048","html-button-response","361","2.0.0","508989","pllo1t2f1nf","jaguar","0","Which of these items did you see before?","","","","","Test","","true","[""stimuli\\EXEMPLAR\\USED\\Enozzle2.jpg"",""stimuli\\EXEMPLAR\\USED\\Enozzle1.jpg""]","stimuli\EXEMPLAR\USED\Enozzle2.jpg","stimuli\EXEMPLAR\USED\Enozzle2.jpg",""
"","2619","image-slider-response","362","2.0.0","511614","pllo1t2f1nf","jaguar","5","stimuli\EXEMPLAR\USED\Enozzle2.jpg","","","","","","","","","","","3"
"","1533","html-button-response","363","2.0.0","513157","pllo1t2f1nf","jaguar","0","Which of these items did you see before?","","","","","Test","","true","[""stimuli\\STATE\\USED\\Seggplant1.jpg"",""stimuli\\STATE\\USED\\Seggplant2.jpg""]","stimuli\STATE\USED\Seggplant1.jpg","stimuli\STATE\USED\Seggplant1.jpg",""
"","2092","image-slider-response","364","2.0.0","515256","pllo1t2f1nf","jaguar","5","stimuli\STATE\USED\Seggplant1.jpg","","","","","","","","","","","3"
"","2652","html-button-response","365","2.0.0","517919","pllo1t2f1nf","jaguar","1","Which of these items did you see before?","","","","","Test","","true","[""stimuli\\STATE\\USED\\Sscissors1.JPG"",""stimuli\\STATE\\USED\\Sscissors2.JPG""]","stimuli\STATE\USED\Sscissors2.JPG","stimuli\STATE\USED\Sscissors2.JPG",""
"","2172","image-slider-response","366","2.0.0","520099","pllo1t2f1nf","jaguar","1","stimuli\STATE\USED\Sscissors2.JPG","","","","","","","","","","","3"
"","1382","html-button-response","367","2.0.0","521491","pllo1t2f1nf","jaguar","0","Which of these items did you see before?","","","","","Test","","true","[""stimuli\\EXEMPLAR\\USED\\Esantahat2.jpg"",""stimuli\\EXEMPLAR\\USED\\Esantahat1.jpg""]","stimuli\EXEMPLAR\USED\Esantahat2.jpg","stimuli\EXEMPLAR\USED\Esantahat2.jpg",""
"","4492","image-slider-response","368","2.0.0","525990","pllo1t2f1nf","jaguar","3","stimuli\EXEMPLAR\USED\Esantahat2.jpg","","","","","","","","","","","3"
"","5716","html-button-response","369","2.0.0","531716","pllo1t2f1nf","jaguar","0","Which of these items did you see before?","","","","","Test","","true","[""stimuli\\STATE\\USED\\Spicnicbasket1.jpg"",""stimuli\\STATE\\USED\\Spicnicbasket2.jpg""]","stimuli\STATE\USED\Spicnicbasket1.jpg","stimuli\STATE\USED\Spicnicbasket1.jpg",""
"","2460","image-slider-response","370","2.0.0","534183","pllo1t2f1nf","jaguar","3","stimuli\STATE\USED\Spicnicbasket1.jpg","","","","","","","","","","","3"
"","3127","html-button-response","371","2.0.0","537319","pllo1t2f1nf","jaguar","0","Which of these items did you see before?","","","","","Test","","false","[""stimuli\\STATE\\USED\\Sbook2.JPG"",""stimuli\\STATE\\USED\\Sbook1.JPG""]","stimuli\STATE\USED\Sbook1.JPG","stimuli\STATE\USED\Sbook2.JPG",""
"","2109","image-slider-response","372","2.0.0","539434","pllo1t2f1nf","jaguar","2","stimuli\STATE\USED\Sbook2.JPG","","","","","","","","","","","3"
"","1720","html-button-response","373","2.0.0","541164","pllo1t2f1nf","jaguar","1","Which of these items did you see before?","","","","","Test","","true","[""stimuli\\EXEMPLAR\\USED\\Edinosaur2.jpg"",""stimuli\\EXEMPLAR\\USED\\Edinosaur1.jpg""]","stimuli\EXEMPLAR\USED\Edinosaur1.jpg","stimuli\EXEMPLAR\USED\Edinosaur1.jpg",""
"","2563","image-slider-response","374","2.0.0","543733","pllo1t2f1nf","jaguar","3","stimuli\EXEMPLAR\USED\Edinosaur1.jpg","","","","","","","","","","","3"
"","1973","html-button-response","375","2.0.0","545718","pllo1t2f1nf","jaguar","0","Which of these items did you see before?","","","","","Test","","false","[""stimuli\\STATE\\USED\\Shairbrush2.jpg"",""stimuli\\STATE\\USED\\Shairbrush1.jpg""]","stimuli\STATE\USED\Shairbrush1.jpg","stimuli\STATE\USED\Shairbrush2.jpg",""
"","1854","image-slider-response","376","2.0.0","547578","pllo1t2f1nf","jaguar","1","stimuli\STATE\USED\Shairbrush2.jpg","","","","","","","","","","","3"
"","2143","html-button-response","377","2.0.0","549733","pllo1t2f1nf","jaguar","0","Which of these items did you see before?","","","","","Test","","false","[""stimuli\\EXEMPLAR\\USED\\Eframe2.jpg"",""stimuli\\EXEMPLAR\\USED\\Eframe1.jpg""]","stimuli\EXEMPLAR\USED\Eframe1.jpg","stimuli\EXEMPLAR\USED\Eframe2.jpg",""
"","2380","image-slider-response","378","2.0.0","552119","pllo1t2f1nf","jaguar","1","stimuli\EXEMPLAR\USED\Eframe2.jpg","","","","","","","","","","","3"
"","1687","html-button-response","379","2.0.0","553817","pllo1t2f1nf","jaguar","0","Which of these items did you see before?","","","","","Test","","true","[""stimuli\\EXEMPLAR\\USED\\Ebonzai1.jpg"",""stimuli\\EXEMPLAR\\USED\\Ebonzai2.jpg""]","stimuli\EXEMPLAR\USED\Ebonzai1.jpg","stimuli\EXEMPLAR\USED\Ebonzai1.jpg",""
"","1770","image-slider-response","380","2.0.0","555594","pllo1t2f1nf","jaguar","1","stimuli\EXEMPLAR\USED\Ebonzai1.jpg","","","","","","","","","","","3"
"","2305","html-button-response","381","2.0.0","557908","pllo1t2f1nf","jaguar","1","Which of these items did you see before?","","","","","Test","","true","[""stimuli\\STATE\\USED\\Snapkins1.jpg"",""stimuli\\STATE\\USED\\Snapkins2.jpg""]","stimuli\STATE\USED\Snapkins2.jpg","stimuli\STATE\USED\Snapkins2.jpg",""
"","1828","image-slider-response","382","2.0.0","559742","pllo1t2f1nf","jaguar","1","stimuli\STATE\USED\Snapkins2.jpg","","","","","","","","","","","3"
"","1749","html-button-response","383","2.0.0","561501","pllo1t2f1nf","jaguar","1","Which of these items did you see before?","","","","","Test","","true","[""stimuli\\STATE\\USED\\Shandshake1.JPG"",""stimuli\\STATE\\USED\\Shandshake2.JPG""]","stimuli\STATE\USED\Shandshake2.JPG","stimuli\STATE\USED\Shandshake2.JPG",""
"","2574","image-slider-response","384","2.0.0","564081","pllo1t2f1nf","jaguar","4","stimuli\STATE\USED\Shandshake2.JPG","","","","","","","","","","","3"
"","1854","html-button-response","385","2.0.0","565946","pllo1t2f1nf","jaguar","0","Which of these items did you see before?","","","","","Test","","true","[""stimuli\\STATE\\USED\\Shandmirror2.jpg"",""stimuli\\STATE\\USED\\Shandmirror1.jpg""]","stimuli\STATE\USED\Shandmirror2.jpg","stimuli\STATE\USED\Shandmirror2.jpg",""
"","6030","image-slider-response","386","2.0.0","571982","pllo1t2f1nf","jaguar","3","stimuli\STATE\USED\Shandmirror2.jpg","","","","","","","","","","","3"
"","3346","html-button-response","387","2.0.0","575337","pllo1t2f1nf","jaguar","0","Which of these items did you see before?","","","","","Test","","true","[""stimuli\\EXEMPLAR\\USED\\Echopsticks1.jpg"",""stimuli\\EXEMPLAR\\USED\\Echopsticks2.jpg""]","stimuli\EXEMPLAR\USED\Echopsticks1.jpg","stimuli\EXEMPLAR\USED\Echopsticks1.jpg",""
"","2142","image-slider-response","388","2.0.0","577487","pllo1t2f1nf","jaguar","1","stimuli\EXEMPLAR\USED\Echopsticks1.jpg","","","","","","","","","","","3"
"","3031","html-button-response","389","2.0.0","580527","pllo1t2f1nf","jaguar","1","Which of these items did you see before?","","","","","Test","","true","[""stimuli\\STATE\\USED\\Sbox2.jpg"",""stimuli\\STATE\\USED\\Sbox1.jpg""]","stimuli\STATE\USED\Sbox1.jpg","stimuli\STATE\USED\Sbox1.jpg",""
"","2147","image-slider-response","390","2.0.0","582680","pllo1t2f1nf","jaguar","1","stimuli\STATE\USED\Sbox1.jpg","","","","","","","","","","","3"
"","1202","html-button-response","391","2.0.0","583892","pllo1t2f1nf","jaguar","0","Which of these items did you see before?","","","","","Test","","true","[""stimuli\\EXEMPLAR\\USED\\Eguitar1.jpg"",""stimuli\\EXEMPLAR\\USED\\Eguitar2.jpg""]","stimuli\EXEMPLAR\USED\Eguitar1.jpg","stimuli\EXEMPLAR\USED\Eguitar1.jpg",""
"","1507","image-slider-response","392","2.0.0","585406","pllo1t2f1nf","jaguar","5","stimuli\EXEMPLAR\USED\Eguitar1.jpg","","","","","","","","","","","3"
"","2177","html-button-response","393","2.0.0","587593","pllo1t2f1nf","jaguar","0","Which of these items did you see before?","","","","","Test","","false","[""stimuli\\EXEMPLAR\\USED\\Erabbit2.jpg"",""stimuli\\EXEMPLAR\\USED\\Erabbit1.jpg""]","stimuli\EXEMPLAR\USED\Erabbit1.jpg","stimuli\EXEMPLAR\USED\Erabbit2.jpg",""
"","2858","image-slider-response","394","2.0.0","590458","pllo1t2f1nf","jaguar","1","stimuli\EXEMPLAR\USED\Erabbit2.jpg","","","","","","","","","","","3"
"","1384","html-button-response","395","2.0.0","591853","pllo1t2f1nf","jaguar","0","Which of these items did you see before?","","","","","Test","","true","[""stimuli\\EXEMPLAR\\USED\\Eremote2.jpg"",""stimuli\\EXEMPLAR\\USED\\Eremote1.jpg""]","stimuli\EXEMPLAR\USED\Eremote2.jpg","stimuli\EXEMPLAR\USED\Eremote2.jpg",""
"","2402","image-slider-response","396","2.0.0","594262","pllo1t2f1nf","jaguar","1","stimuli\EXEMPLAR\USED\Eremote2.jpg","","","","","","","","","","","3"
"","1695","html-button-response","397","2.0.0","595966","pllo1t2f1nf","jaguar","0","Which of these items did you see before?","","","","","Test","","true","[""stimuli\\EXEMPLAR\\USED\\Eholepunch1.jpg"",""stimuli\\EXEMPLAR\\USED\\Eholepunch2.jpg""]","stimuli\EXEMPLAR\USED\Eholepunch1.jpg","stimuli\EXEMPLAR\USED\Eholepunch1.jpg",""
"","3325","image-slider-response","398","2.0.0","599297","pllo1t2f1nf","jaguar","4","stimuli\EXEMPLAR\USED\Eholepunch1.jpg","","","","","","","","","","","3"
"","1242","html-button-response","399","2.0.0","600549","pllo1t2f1nf","jaguar","0","Which of these items did you see before?","","","","","Test","","true","[""stimuli\\STATE\\USED\\Sumbrella1.jpg"",""stimuli\\STATE\\USED\\Sumbrella2.jpg""]","stimuli\STATE\USED\Sumbrella1.jpg","stimuli\STATE\USED\Sumbrella1.jpg",""
"","1713","image-slider-response","400","2.0.0","602268","pllo1t2f1nf","jaguar","5","stimuli\STATE\USED\Sumbrella1.jpg","","","","","","","","","","","3"
"","3490","html-button-response","401","2.0.0","605768","pllo1t2f1nf","jaguar","0","Which of these items did you see before?","","","","","Test","","false","[""stimuli\\STATE\\USED\\Spie1.JPG"",""stimuli\\STATE\\USED\\Spie2.JPG""]","stimuli\STATE\USED\Spie2.JPG","stimuli\STATE\USED\Spie1.JPG",""
"","2520","image-slider-response","402","2.0.0","608295","pllo1t2f1nf","jaguar","1","stimuli\STATE\USED\Spie1.JPG","","","","","","","","","","","3"
"","2930","html-button-response","403","2.0.0","611234","pllo1t2f1nf","jaguar","1","Which of these items did you see before?","","","","","Test","","true","[""stimuli\\STATE\\USED\\Scoffeemaker1.JPG"",""stimuli\\STATE\\USED\\Scoffeemaker2.JPG""]","stimuli\STATE\USED\Scoffeemaker2.JPG","stimuli\STATE\USED\Scoffeemaker2.JPG",""
"","2048","image-slider-response","404","2.0.0","613289","pllo1t2f1nf","jaguar","3","stimuli\STATE\USED\Scoffeemaker2.JPG","","","","","","","","","","","3"
"","1816","html-button-response","405","2.0.0","615114","pllo1t2f1nf","jaguar","0","Which of these items did you see before?","","","","","Test","","false","[""stimuli\\EXEMPLAR\\USED\\Emitt2.jpg"",""stimuli\\EXEMPLAR\\USED\\Emitt1.jpg""]","stimuli\EXEMPLAR\USED\Emitt1.jpg","stimuli\EXEMPLAR\USED\Emitt2.jpg",""
"","4062","image-slider-response","406","2.0.0","619182","pllo1t2f1nf","jaguar","2","stimuli\EXEMPLAR\USED\Emitt2.jpg","","","","","","","","","","","3"
"","1526","html-button-response","407","2.0.0","620718","pllo1t2f1nf","jaguar","1","Which of these items did you see before?","","","","","Test","","true","[""stimuli\\STATE\\USED\\Sseats2.jpg"",""stimuli\\STATE\\USED\\Sseats1.jpg""]","stimuli\STATE\USED\Sseats1.jpg","stimuli\STATE\USED\Sseats1.jpg",""
"","1695","image-slider-response","408","2.0.0","622419","pllo1t2f1nf","jaguar","5","stimuli\STATE\USED\Sseats1.jpg","","","","","","","","","","","3"
"","1738","html-button-response","409","2.0.0","624170","pllo1t2f1nf","jaguar","0","Which of these items did you see before?","","","","","Test","","true","[""stimuli\\STATE\\USED\\Spiggybank1.jpg"",""stimuli\\STATE\\USED\\Spiggybank2.jpg""]","stimuli\STATE\USED\Spiggybank1.jpg","stimuli\STATE\USED\Spiggybank1.jpg",""
"","3261","image-slider-response","410","2.0.0","627438","pllo1t2f1nf","jaguar","5","stimuli\STATE\USED\Spiggybank1.jpg","","","","","","","","","","","3"
"","1679","html-button-response","411","2.0.0","629127","pllo1t2f1nf","jaguar","0","Which of these items did you see before?","","","","","Test","","false","[""stimuli\\EXEMPLAR\\USED\\Edispenser2.jpg"",""stimuli\\EXEMPLAR\\USED\\Edispenser1.jpg""]","stimuli\EXEMPLAR\USED\Edispenser1.jpg","stimuli\EXEMPLAR\USED\Edispenser2.jpg",""
"","1891","image-slider-response","412","2.0.0","631025","pllo1t2f1nf","jaguar","4","stimuli\EXEMPLAR\USED\Edispenser2.jpg","","","","","","","","","","","3"
"","1215","html-button-response","413","2.0.0","632251","pllo1t2f1nf","jaguar","0","Which of these items did you see before?","","","","","Test","","true","[""stimuli\\STATE\\USED\\Sbrie1.JPG"",""stimuli\\STATE\\USED\\Sbrie2.JPG""]","stimuli\STATE\USED\Sbrie1.JPG","stimuli\STATE\USED\Sbrie1.JPG",""
"","1389","image-slider-response","414","2.0.0","633647","pllo1t2f1nf","jaguar","5","stimuli\STATE\USED\Sbrie1.JPG","","","","","","","","","","","3"
"","10729","html-button-response","415","2.0.0","644385","pllo1t2f1nf","jaguar","1","Which of these items did you see before?","","","","","Test","","true","[""stimuli\\STATE\\USED\\Sdrum2.jpg"",""stimuli\\STATE\\USED\\Sdrum1.jpg""]","stimuli\STATE\USED\Sdrum1.jpg","stimuli\STATE\USED\Sdrum1.jpg",""
"","2199","image-slider-response","416","2.0.0","646591","pllo1t2f1nf","jaguar","1","stimuli\STATE\USED\Sdrum1.jpg","","","","","","","","","","","3"
"","4923","html-button-response","417","2.0.0","651524","pllo1t2f1nf","jaguar","1","Which of these items did you see before?","","","","","Test","","true","[""stimuli\\EXEMPLAR\\USED\\Erazor1.jpg"",""stimuli\\EXEMPLAR\\USED\\Erazor2.jpg""]","stimuli\EXEMPLAR\USED\Erazor2.jpg","stimuli\EXEMPLAR\USED\Erazor2.jpg",""
"","2971","image-slider-response","418","2.0.0","654504","pllo1t2f1nf","jaguar","5","stimuli\EXEMPLAR\USED\Erazor2.jpg","","","","","","","","","","","3"
"","1855","html-button-response","419","2.0.0","656370","pllo1t2f1nf","jaguar","0","Which of these items did you see before?","","","","","Test","","false","[""stimuli\\EXEMPLAR\\USED\\Ecamera1.jpg"",""stimuli\\EXEMPLAR\\USED\\Ecamera2.jpg""]","stimuli\EXEMPLAR\USED\Ecamera2.jpg","stimuli\EXEMPLAR\USED\Ecamera1.jpg",""
"","2178","image-slider-response","420","2.0.0","658555","pllo1t2f1nf","jaguar","1","stimuli\EXEMPLAR\USED\Ecamera1.jpg","","","","","","","","","","","3"
"","2068","html-button-response","421","2.0.0","660634","pllo1t2f1nf","jaguar","0","Which of these items did you see before?","","","","","Test","","false","[""stimuli\\EXEMPLAR\\USED\\Eremover1.jpg"",""stimuli\\EXEMPLAR\\USED\\Eremover2.jpg""]","stimuli\EXEMPLAR\USED\Eremover2.jpg","stimuli\EXEMPLAR\USED\Eremover1.jpg",""
"","2215","image-slider-response","422","2.0.0","662856","pllo1t2f1nf","jaguar","3","stimuli\EXEMPLAR\USED\Eremover1.jpg","","","","","","","","","","","3"
"","1054","html-button-response","423","2.0.0","663920","pllo1t2f1nf","jaguar","0","Which of these items did you see before?","","","","","Test","","true","[""stimuli\\STATE\\USED\\Ssweater1.jpg"",""stimuli\\STATE\\USED\\Ssweater2.jpg""]","stimuli\STATE\USED\Ssweater1.jpg","stimuli\STATE\USED\Ssweater1.jpg",""
"","2441","image-slider-response","424","2.0.0","666368","pllo1t2f1nf","jaguar","5","stimuli\STATE\USED\Ssweater1.jpg","","","","","","","","","","","3"
"","1598","html-button-response","425","2.0.0","667976","pllo1t2f1nf","jaguar","1","Which of these items did you see before?","","","","","Test","","true","[""stimuli\\EXEMPLAR\\USED\\Elei1.jpg"",""stimuli\\EXEMPLAR\\USED\\Elei2.jpg""]","stimuli\EXEMPLAR\USED\Elei2.jpg","stimuli\EXEMPLAR\USED\Elei2.jpg",""
"","1776","image-slider-response","426","2.0.0","669758","pllo1t2f1nf","jaguar","5","stimuli\EXEMPLAR\USED\Elei2.jpg","","","","","","","","","","","3"
"","2944","html-button-response","427","2.0.0","672712","pllo1t2f1nf","jaguar","0","Which of these items did you see before?","","","","","Test","","true","[""stimuli\\STATE\\USED\\Sdie1.jpg"",""stimuli\\STATE\\USED\\Sdie2.jpg""]","stimuli\STATE\USED\Sdie1.jpg","stimuli\STATE\USED\Sdie1.jpg",""
"","3217","image-slider-response","428","2.0.0","675936","pllo1t2f1nf","jaguar","4","stimuli\STATE\USED\Sdie1.jpg","","","","","","","","","","","3"
"","1975","html-button-response","429","2.0.0","677921","pllo1t2f1nf","jaguar","1","Which of these items did you see before?","","","","","Test","","true","[""stimuli\\EXEMPLAR\\USED\\Etongs2.jpg"",""stimuli\\EXEMPLAR\\USED\\Etongs1.jpg""]","stimuli\EXEMPLAR\USED\Etongs1.jpg","stimuli\EXEMPLAR\USED\Etongs1.jpg",""
"","2272","image-slider-response","430","2.0.0","680200","pllo1t2f1nf","jaguar","2","stimuli\EXEMPLAR\USED\Etongs1.jpg","","","","","","","","","","","3"
"","1693","html-button-response","431","2.0.0","681903","pllo1t2f1nf","jaguar","1","Which of these items did you see before?","","","","","Test","","true","[""stimuli\\EXEMPLAR\\USED\\Econe1.jpg"",""stimuli\\EXEMPLAR\\USED\\Econe2.jpg""]","stimuli\EXEMPLAR\USED\Econe2.jpg","stimuli\EXEMPLAR\USED\Econe2.jpg",""
"","2219","image-slider-response","432","2.0.0","684128","pllo1t2f1nf","jaguar","4","stimuli\EXEMPLAR\USED\Econe2.jpg","","","","","","","","","","","3"
"","1388","html-button-response","433","2.0.0","685527","pllo1t2f1nf","jaguar","0","Which of these items did you see before?","","","","","Test","","true","[""stimuli\\STATE\\USED\\Sdresser2.jpg"",""stimuli\\STATE\\USED\\Sdresser1.jpg""]","stimuli\STATE\USED\Sdresser2.jpg","stimuli\STATE\USED\Sdresser2.jpg",""
"","2458","image-slider-response","434","2.0.0","687991","pllo1t2f1nf","jaguar","5","stimuli\STATE\USED\Sdresser2.jpg","","","","","","","","","","","3"
"","2045","html-button-response","435","2.0.0","690045","pllo1t2f1nf","jaguar","0","Which of these items did you see before?","","","","","Test","","true","[""stimuli\\STATE\\USED\\Sphoneold2.jpg"",""stimuli\\STATE\\USED\\Sphoneold1.jpg""]","stimuli\STATE\USED\Sphoneold2.jpg","stimuli\STATE\USED\Sphoneold2.jpg",""
"","3098","image-slider-response","436","2.0.0","693149","pllo1t2f1nf","jaguar","5","stimuli\STATE\USED\Sphoneold2.jpg","","","","","","","","","","","3"
"","3136","html-button-response","437","2.0.0","696294","pllo1t2f1nf","jaguar","0","Which of these items did you see before?","","","","","Test","","true","[""stimuli\\EXEMPLAR\\USED\\Echeeses2.jpg"",""stimuli\\EXEMPLAR\\USED\\Echeeses1.jpg""]","stimuli\EXEMPLAR\USED\Echeeses2.jpg","stimuli\EXEMPLAR\USED\Echeeses2.jpg",""
"","2489","image-slider-response","438","2.0.0","698790","pllo1t2f1nf","jaguar","5","stimuli\EXEMPLAR\USED\Echeeses2.jpg","","","","","","","","","","","3"
"","2883","html-button-response","439","2.0.0","701682","pllo1t2f1nf","jaguar","0","Which of these items did you see before?","","","","","Test","","false","[""stimuli\\STATE\\USED\\Sdryer1.jpg"",""stimuli\\STATE\\USED\\Sdryer2.jpg""]","stimuli\STATE\USED\Sdryer2.jpg","stimuli\STATE\USED\Sdryer1.jpg",""
"","1520","image-slider-response","440","2.0.0","703208","pllo1t2f1nf","jaguar","2","stimuli\STATE\USED\Sdryer1.jpg","","","","","","","","","","","3"
"","1390","html-button-response","441","2.0.0","704609","pllo1t2f1nf","jaguar","0","Which of these items did you see before?","","","","","Test","","true","[""stimuli\\EXEMPLAR\\USED\\Esuitcase2.jpg"",""stimuli\\EXEMPLAR\\USED\\Esuitcase1.jpg""]","stimuli\EXEMPLAR\USED\Esuitcase2.jpg","stimuli\EXEMPLAR\USED\Esuitcase2.jpg",""
"","1585","image-slider-response","442","2.0.0","706200","pllo1t2f1nf","jaguar","1","stimuli\EXEMPLAR\USED\Esuitcase2.jpg","","","","","","","","","","","3"
"","1866","html-button-response","443","2.0.0","708075","pllo1t2f1nf","jaguar","1","Which of these items did you see before?","","","","","Test","","true","[""stimuli\\STATE\\USED\\Sgiftbox2.jpg"",""stimuli\\STATE\\USED\\Sgiftbox1.jpg""]","stimuli\STATE\USED\Sgiftbox1.jpg","stimuli\STATE\USED\Sgiftbox1.jpg",""
"","1713","image-slider-response","444","2.0.0","709795","pllo1t2f1nf","jaguar","2","stimuli\STATE\USED\Sgiftbox1.jpg","","","","","","","","","","","3"
"","2322","html-button-response","445","2.0.0","712126","pllo1t2f1nf","jaguar","1","Which of these items did you see before?","","","","","Test","","true","[""stimuli\\STATE\\USED\\Spestle2.jpg"",""stimuli\\STATE\\USED\\Spestle1.jpg""]","stimuli\STATE\USED\Spestle1.jpg","stimuli\STATE\USED\Spestle1.jpg",""
"","1920","image-slider-response","446","2.0.0","714053","pllo1t2f1nf","jaguar","1","stimuli\STATE\USED\Spestle1.jpg","","","","","","","","","","","3"
"","10688","html-button-response","447","2.0.0","724751","pllo1t2f1nf","jaguar","1","Which of these items did you see before?","","","","","Test","","false","[""stimuli\\STATE\\USED\\Smetronome1.jpg"",""stimuli\\STATE\\USED\\Smetronome2.JPG""]","stimuli\STATE\USED\Smetronome1.jpg","stimuli\STATE\USED\Smetronome2.JPG",""
"","2953","image-slider-response","448","2.0.0","727710","pllo1t2f1nf","jaguar","1","stimuli\STATE\USED\Smetronome2.JPG","","","","","","","","","","","3"
"","124273","survey-text","449","2.0.0","851987","pllo1t2f1nf","jaguar","{""experiment_purpose"":""What sort of details of an image are more memorable"",""Q1"":""Shape, color, unusual features (like the flipped-up theater seats)"",""technical_issues"":""no""}","","","","","","","","","","","",""
