"success","rt","trial_type","trial_index","plugin_version","time_elapsed","random_id","participant","response","stimulus","timeout","failed_images","failed_audio","failed_video","trial_phase","repeated","correct","choice_images","correct_image","choice","slider_start"
"true","4036","fullscreen","0","2.0.0","5042","pmkev4nz5vv","tardigrade666","","","","","","","","","","","","",""
"","5592","survey-text","1","2.0.0","10636","pmkev4nz5vv","tardigrade666","{""participant_id"":""tardigrade666""}","","","","","","","","","","","",""
"","3182","html-keyboard-response","2","2.0.0","13820","pmkev4nz5vv","tardigrade666","f","<p>Welcome to the Massive Memory Experiment. Press any key to move on. </p>","","","","","","","","","","",""
"","43463","html-keyboard-response","3","2.0.0","57285","pmkev4nz5vv","tardigrade666"," ","
      <div style='width:900px;margin: auto;'><p>In the first section you will see a stream of images, with fixation crosses in between each image.</p>
      <p>Each image will remain on screen for 2 seconds. Your job is to detect images that you have seen before within the experiment. Whenever you see an image that you have seen previously <b>at any point in the stream of images</b>, press the spacebar.</p>
      <p>We will let you know if you have correctly or falsely clicked the spacebar on an image by changing the color of the fixation cross.</p>
      <p>If you press the spacebar correctly (the image really did appear earlier), the fixation cross will turn green. If you pressed the spacebar incorrectly, the fixation cross will turn red.</p>
      <p>Please watch carefully to detect the images that show up again!</p>
      <p>Press any key to start.</p></div>
    ","","","","","","","","","","",""
"true","","preload","4","2.0.0","72077","pmkev4nz5vv","tardigrade666","","","false","[]","[]","[]","","","","","","",""
"","null","image-keyboard-response","5","2.0.0","74082","pmkev4nz5vv","tardigrade666","null","stimuli\EXEMPLAR\USED\Eframe2.jpg","","","","","Memory","false","null","","","",""
"","null","html-keyboard-response","6","2.0.0","74584","pmkev4nz5vv","tardigrade666","null","<div style=""font-size:60px; color: black;"">+</div>","","","","","","","","","","",""
"","null","image-keyboard-response","7","2.0.0","76588","pmkev4nz5vv","tardigrade666","null","stimuli\STATE\USED\Sdishwasher1.jpg","","","","","Memory","false","null","","","",""
"","null","html-keyboard-response","8","2.0.0","77090","pmkev4nz5vv","tardigrade666","null","<div style=""font-size:60px; color: black;"">+</div>","","","","","","","","","","",""
"","null","image-keyboard-response","9","2.0.0","79109","pmkev4nz5vv","tardigrade666","null","stimuli\EXEMPLAR\USED\Echocolatebar1.jpg","","","","","Memory","false","null","","","",""
"","null","html-keyboard-response","10","2.0.0","79612","pmkev4nz5vv","tardigrade666","null","<div style=""font-size:60px; color: black;"">+</div>","","","","","","","","","","",""
"","null","image-keyboard-response","11","2.0.0","81615","pmkev4nz5vv","tardigrade666","null","stimuli\STATE\USED\Sbarnmailbox1.jpg","","","","","Memory","false","null","","","",""
"","null","html-keyboard-response","12","2.0.0","82118","pmkev4nz5vv","tardigrade666","null","<div style=""font-size:60px; color: black;"">+</div>","","","","","","","","","","",""
"","null","image-keyboard-response","13","2.0.0","84122","pmkev4nz5vv","tardigrade666","null","stimuli\STATE\USED\Spicnicbasket2.jpg","","","","","Memory","false","null","","","",""
"","null","html-keyboard-response","14","2.0.0","84625","pmkev4nz5vv","tardigrade666","null","<div style=""font-size:60px; color: black;"">+</div>","","","","","","","","","","",""
"","832","image-keyboard-response","15","2.0.0","86629","pmkev4nz5vv","tardigrade666"," ","stimuli\STATE\USED\Sdishwasher1.jpg","","","","","Memory","true","true","","","",""
"","null","html-keyboard-response","16","2.0.0","87133","pmkev4nz5vv","tardigrade666","null","<div style=""font-size:60px; color: green;"">+</div>","","","","","","","","","","",""
"","null","image-keyboard-response","17","2.0.0","89137","pmkev4nz5vv","tardigrade666","null","stimuli\EXEMPLAR\USED\Emitt2.jpg","","","","","Memory","false","null","","","",""
"","null","html-keyboard-response","18","2.0.0","89640","pmkev4nz5vv","tardigrade666","null","<div style=""font-size:60px; color: black;"">+</div>","","","","","","","","","","",""
"","null","image-keyboard-response","19","2.0.0","91644","pmkev4nz5vv","tardigrade666","null","stimuli\EXEMPLAR\USED\Emedal2.jpg","","","","","Memory","false","null","","","",""
"","null","html-keyboard-response","20","2.0.0","92148","pmkev4nz5vv","tardigrade666","null","<div style=""font-size:60px; color: black;"">+</div>","","","","","","","","","","",""
"","null","image-keyboard-response","21","2.0.0","94151","pmkev4nz5vv","tardigrade666","null","stimuli\EXEMPLAR\USED\Etrophy1.jpg","","","","","Memory","false","null","","","",""
"","null","html-keyboard-response","22","2.0.0","94655","pmkev4nz5vv","tardigrade666","null","<div style=""font-size:60px; color: black;"">+</div>","","","","","","","","","","",""
"","null","image-keyboard-response","23","2.0.0","96659","pmkev4nz5vv","tardigrade666","null","stimuli\STATE\USED\Spiggybank1.jpg","","","","","Memory","false","null","","","",""
"","null","html-keyboard-response","24","2.0.0","97162","pmkev4nz5vv","tardigrade666","null","<div style=""font-size:60px; color: black;"">+</div>","","","","","","","","","","",""
"","689","image-keyboard-response","25","2.0.0","99166","pmkev4nz5vv","tardigrade666"," ","stimuli\EXEMPLAR\USED\Emitt2.jpg","","","","","Memory","true","true","","","",""
"","null","html-keyboard-response","26","2.0.0","99668","pmkev4nz5vv","tardigrade666","null","<div style=""font-size:60px; color: green;"">+</div>","","","","","","","","","","",""
"","null","image-keyboard-response","27","2.0.0","101671","pmkev4nz5vv","tardigrade666","null","stimuli\EXEMPLAR\USED\Ekayak1.jpg","","","","","Memory","false","null","","","",""
"","null","html-keyboard-response","28","2.0.0","102174","pmkev4nz5vv","tardigrade666","null","<div style=""font-size:60px; color: black;"">+</div>","","","","","","","","","","",""
"","null","image-keyboard-response","29","2.0.0","104178","pmkev4nz5vv","tardigrade666","null","stimuli\STATE\USED\Sphone1.JPG","","","","","Memory","false","null","","","",""
"","null","html-keyboard-response","30","2.0.0","104681","pmkev4nz5vv","tardigrade666","null","<div style=""font-size:60px; color: black;"">+</div>","","","","","","","","","","",""
"","null","image-keyboard-response","31","2.0.0","106685","pmkev4nz5vv","tardigrade666","null","stimuli\STATE\USED\Shandmirror2.jpg","","","","","Memory","false","null","","","",""
"","null","html-keyboard-response","32","2.0.0","107189","pmkev4nz5vv","tardigrade666","null","<div style=""font-size:60px; color: black;"">+</div>","","","","","","","","","","",""
"","null","image-keyboard-response","33","2.0.0","109192","pmkev4nz5vv","tardigrade666","null","stimuli\EXEMPLAR\USED\Elog2.jpg","","","","","Memory","false","null","","","",""
"","null","html-keyboard-response","34","2.0.0","109694","pmkev4nz5vv","tardigrade666","null","<div style=""font-size:60px; color: black;"">+</div>","","","","","","","","","","",""
"","null","image-keyboard-response","35","2.0.0","111697","pmkev4nz5vv","tardigrade666","null","stimuli\STATE\USED\Sflask2.jpg","","","","","Memory","false","null","","","",""
"","null","html-keyboard-response","36","2.0.0","112201","pmkev4nz5vv","tardigrade666","null","<div style=""font-size:60px; color: black;"">+</div>","","","","","","","","","","",""
"","null","image-keyboard-response","37","2.0.0","114204","pmkev4nz5vv","tardigrade666","null","stimuli\STATE\USED\Stypewriter2.jpg","","","","","Memory","false","null","","","",""
"","null","html-keyboard-response","38","2.0.0","114707","pmkev4nz5vv","tardigrade666","null","<div style=""font-size:60px; color: black;"">+</div>","","","","","","","","","","",""
"","724","image-keyboard-response","39","2.0.0","116711","pmkev4nz5vv","tardigrade666"," ","stimuli\STATE\USED\Shandmirror2.jpg","","","","","Memory","true","true","","","",""
"","null","html-keyboard-response","40","2.0.0","117214","pmkev4nz5vv","tardigrade666","null","<div style=""font-size:60px; color: green;"">+</div>","","","","","","","","","","",""
"","null","image-keyboard-response","41","2.0.0","119218","pmkev4nz5vv","tardigrade666","null","stimuli\EXEMPLAR\USED\Efishbowl1.jpg","","","","","Memory","false","null","","","",""
"","null","html-keyboard-response","42","2.0.0","119720","pmkev4nz5vv","tardigrade666","null","<div style=""font-size:60px; color: black;"">+</div>","","","","","","","","","","",""
"","null","image-keyboard-response","43","2.0.0","121724","pmkev4nz5vv","tardigrade666","null","stimuli\EXEMPLAR\USED\Eelectricbass1.jpg","","","","","Memory","false","null","","","",""
"","null","html-keyboard-response","44","2.0.0","122228","pmkev4nz5vv","tardigrade666","null","<div style=""font-size:60px; color: black;"">+</div>","","","","","","","","","","",""
"","null","image-keyboard-response","45","2.0.0","124231","pmkev4nz5vv","tardigrade666","null","stimuli\EXEMPLAR\USED\Etrowel2.jpg","","","","","Memory","false","null","","","",""
"","null","html-keyboard-response","46","2.0.0","124733","pmkev4nz5vv","tardigrade666","null","<div style=""font-size:60px; color: black;"">+</div>","","","","","","","","","","",""
"","null","image-keyboard-response","47","2.0.0","126736","pmkev4nz5vv","tardigrade666","null","stimuli\EXEMPLAR\USED\Esantahat2.jpg","","","","","Memory","false","null","","","",""
"","null","html-keyboard-response","48","2.0.0","127239","pmkev4nz5vv","tardigrade666","null","<div style=""font-size:60px; color: black;"">+</div>","","","","","","","","","","",""
"","null","image-keyboard-response","49","2.0.0","129242","pmkev4nz5vv","tardigrade666","null","stimuli\STATE\USED\Sapplesredbasket1.JPG","","","","","Memory","false","null","","","",""
"","null","html-keyboard-response","50","2.0.0","129745","pmkev4nz5vv","tardigrade666","null","<div style=""font-size:60px; color: black;"">+</div>","","","","","","","","","","",""
"","null","image-keyboard-response","51","2.0.0","131748","pmkev4nz5vv","tardigrade666","null","stimuli\EXEMPLAR\USED\Eteapot2.JPG","","","","","Memory","false","null","","","",""
"","null","html-keyboard-response","52","2.0.0","132251","pmkev4nz5vv","tardigrade666","null","<div style=""font-size:60px; color: black;"">+</div>","","","","","","","","","","",""
"","null","image-keyboard-response","53","2.0.0","134254","pmkev4nz5vv","tardigrade666","null","stimuli\EXEMPLAR\USED\Etractor2.jpg","","","","","Memory","false","null","","","",""
"","null","html-keyboard-response","54","2.0.0","134757","pmkev4nz5vv","tardigrade666","null","<div style=""font-size:60px; color: black;"">+</div>","","","","","","","","","","",""
"","null","image-keyboard-response","55","2.0.0","136760","pmkev4nz5vv","tardigrade666","null","stimuli\STATE\USED\Sseatbelt1.jpg","","","","","Memory","false","null","","","",""
"","null","html-keyboard-response","56","2.0.0","137261","pmkev4nz5vv","tardigrade666","null","<div style=""font-size:60px; color: black;"">+</div>","","","","","","","","","","",""
"","null","image-keyboard-response","57","2.0.0","139264","pmkev4nz5vv","tardigrade666","null","stimuli\STATE\USED\Sbook1.JPG","","","","","Memory","false","null","","","",""
"","null","html-keyboard-response","58","2.0.0","139766","pmkev4nz5vv","tardigrade666","null","<div style=""font-size:60px; color: black;"">+</div>","","","","","","","","","","",""
"","null","image-keyboard-response","59","2.0.0","141769","pmkev4nz5vv","tardigrade666","null","stimuli\EXEMPLAR\USED\Erazor1.jpg","","","","","Memory","false","null","","","",""
"","null","html-keyboard-response","60","2.0.0","142272","pmkev4nz5vv","tardigrade666","null","<div style=""font-size:60px; color: black;"">+</div>","","","","","","","","","","",""
"","652","image-keyboard-response","61","2.0.0","144275","pmkev4nz5vv","tardigrade666"," ","stimuli\EXEMPLAR\USED\Etractor2.jpg","","","","","Memory","true","true","","","",""
"","null","html-keyboard-response","62","2.0.0","144777","pmkev4nz5vv","tardigrade666","null","<div style=""font-size:60px; color: green;"">+</div>","","","","","","","","","","",""
"","null","image-keyboard-response","63","2.0.0","146781","pmkev4nz5vv","tardigrade666","null","stimuli\EXEMPLAR\USED\Emuffler1.jpg","","","","","Memory","false","null","","","",""
"","null","html-keyboard-response","64","2.0.0","147285","pmkev4nz5vv","tardigrade666","null","<div style=""font-size:60px; color: black;"">+</div>","","","","","","","","","","",""
"","null","image-keyboard-response","65","2.0.0","149289","pmkev4nz5vv","tardigrade666","null","stimuli\EXEMPLAR\USED\Eremover2.jpg","","","","","Memory","false","null","","","",""
"","null","html-keyboard-response","66","2.0.0","149792","pmkev4nz5vv","tardigrade666","null","<div style=""font-size:60px; color: black;"">+</div>","","","","","","","","","","",""
"","null","image-keyboard-response","67","2.0.0","151796","pmkev4nz5vv","tardigrade666","null","stimuli\EXEMPLAR\USED\Ewineglass2.jpg","","","","","Memory","false","null","","","",""
"","null","html-keyboard-response","68","2.0.0","152299","pmkev4nz5vv","tardigrade666","null","<div style=""font-size:60px; color: black;"">+</div>","","","","","","","","","","",""
"","null","image-keyboard-response","69","2.0.0","154304","pmkev4nz5vv","tardigrade666","null","stimuli\EXEMPLAR\USED\Ebrick2.jpg","","","","","Memory","false","null","","","",""
"","null","html-keyboard-response","70","2.0.0","154806","pmkev4nz5vv","tardigrade666","null","<div style=""font-size:60px; color: black;"">+</div>","","","","","","","","","","",""
"","null","image-keyboard-response","71","2.0.0","156809","pmkev4nz5vv","tardigrade666","null","stimuli\EXEMPLAR\USED\Epiano1.jpg","","","","","Memory","false","null","","","",""
"","null","html-keyboard-response","72","2.0.0","157312","pmkev4nz5vv","tardigrade666","null","<div style=""font-size:60px; color: black;"">+</div>","","","","","","","","","","",""
"","null","image-keyboard-response","73","2.0.0","159315","pmkev4nz5vv","tardigrade666","null","stimuli\STATE\USED\Sstoplight1.jpg","","","","","Memory","false","null","","","",""
"","null","html-keyboard-response","74","2.0.0","159818","pmkev4nz5vv","tardigrade666","null","<div style=""font-size:60px; color: black;"">+</div>","","","","","","","","","","",""
"","null","image-keyboard-response","75","2.0.0","161821","pmkev4nz5vv","tardigrade666","null","stimuli\STATE\USED\Saccordion1.jpg","","","","","Memory","false","null","","","",""
"","null","html-keyboard-response","76","2.0.0","162324","pmkev4nz5vv","tardigrade666","null","<div style=""font-size:60px; color: black;"">+</div>","","","","","","","","","","",""
"","null","image-keyboard-response","77","2.0.0","164328","pmkev4nz5vv","tardigrade666","null","stimuli\EXEMPLAR\USED\Ebell1.jpg","","","","","Memory","false","null","","","",""
"","null","html-keyboard-response","78","2.0.0","164831","pmkev4nz5vv","tardigrade666","null","<div style=""font-size:60px; color: black;"">+</div>","","","","","","","","","","",""
"","null","image-keyboard-response","79","2.0.0","166833","pmkev4nz5vv","tardigrade666","null","stimuli\EXEMPLAR\USED\Ehotairballoon1.jpg","","","","","Memory","false","null","","","",""
"","null","html-keyboard-response","80","2.0.0","167337","pmkev4nz5vv","tardigrade666","null","<div style=""font-size:60px; color: black;"">+</div>","","","","","","","","","","",""
"","null","image-keyboard-response","81","2.0.0","169340","pmkev4nz5vv","tardigrade666","null","stimuli\STATE\USED\Sdryer1.jpg","","","","","Memory","false","null","","","",""
"","null","html-keyboard-response","82","2.0.0","169842","pmkev4nz5vv","tardigrade666","null","<div style=""font-size:60px; color: black;"">+</div>","","","","","","","","","","",""
"","null","image-keyboard-response","83","2.0.0","171846","pmkev4nz5vv","tardigrade666","null","stimuli\STATE\USED\Sapplesgreenbasket1.jpg","","","","","Memory","false","null","","","",""
"","null","html-keyboard-response","84","2.0.0","172349","pmkev4nz5vv","tardigrade666","null","<div style=""font-size:60px; color: black;"">+</div>","","","","","","","","","","",""
"","null","image-keyboard-response","85","2.0.0","174353","pmkev4nz5vv","tardigrade666","null","stimuli\STATE\USED\Sdresser1.jpg","","","","","Memory","false","null","","","",""
"","null","html-keyboard-response","86","2.0.0","174856","pmkev4nz5vv","tardigrade666","null","<div style=""font-size:60px; color: black;"">+</div>","","","","","","","","","","",""
"","null","image-keyboard-response","87","2.0.0","176859","pmkev4nz5vv","tardigrade666","null","stimuli\EXEMPLAR\USED\Eremote2.jpg","","","","","Memory","false","null","","","",""
"","null","html-keyboard-response","88","2.0.0","177362","pmkev4nz5vv","tardigrade666","null","<div style=""font-size:60px; color: black;"">+</div>","","","","","","","","","","",""
"","null","image-keyboard-response","89","2.0.0","179366","pmkev4nz5vv","tardigrade666","null","stimuli\EXEMPLAR\USED\Epotatochips2.jpg","","","","","Memory","false","null","","","",""
"","null","html-keyboard-response","90","2.0.0","179869","pmkev4nz5vv","tardigrade666","null","<div style=""font-size:60px; color: black;"">+</div>","","","","","","","","","","",""
"","643","image-keyboard-response","91","2.0.0","181871","pmkev4nz5vv","tardigrade666"," ","stimuli\STATE\USED\Sapplesgreenbasket1.jpg","","","","","Memory","true","true","","","",""
"","null","html-keyboard-response","92","2.0.0","182374","pmkev4nz5vv","tardigrade666","null","<div style=""font-size:60px; color: green;"">+</div>","","","","","","","","","","",""
"","null","image-keyboard-response","93","2.0.0","184377","pmkev4nz5vv","tardigrade666","null","stimuli\STATE\USED\Sbabytoy1.JPG","","","","","Memory","false","null","","","",""
"","null","html-keyboard-response","94","2.0.0","184880","pmkev4nz5vv","tardigrade666","null","<div style=""font-size:60px; color: black;"">+</div>","","","","","","","","","","",""
"","null","image-keyboard-response","95","2.0.0","186883","pmkev4nz5vv","tardigrade666","null","stimuli\STATE\USED\Saccordionsmall2.JPG","","","","","Memory","false","null","","","",""
"","null","html-keyboard-response","96","2.0.0","187386","pmkev4nz5vv","tardigrade666","null","<div style=""font-size:60px; color: black;"">+</div>","","","","","","","","","","",""
"","null","image-keyboard-response","97","2.0.0","189390","pmkev4nz5vv","tardigrade666","null","stimuli\STATE\USED\Scateringtray1.jpg","","","","","Memory","false","null","","","",""
"","null","html-keyboard-response","98","2.0.0","189892","pmkev4nz5vv","tardigrade666","null","<div style=""font-size:60px; color: black;"">+</div>","","","","","","","","","","",""
"","null","image-keyboard-response","99","2.0.0","191895","pmkev4nz5vv","tardigrade666","null","stimuli\EXEMPLAR\USED\Ewheelchair1.jpg","","","","","Memory","false","null","","","",""
"","null","html-keyboard-response","100","2.0.0","192398","pmkev4nz5vv","tardigrade666","null","<div style=""font-size:60px; color: black;"">+</div>","","","","","","","","","","",""
"","714","image-keyboard-response","101","2.0.0","194403","pmkev4nz5vv","tardigrade666"," ","stimuli\STATE\USED\Sbabytoy1.JPG","","","","","Memory","true","true","","","",""
"","null","html-keyboard-response","102","2.0.0","194905","pmkev4nz5vv","tardigrade666","null","<div style=""font-size:60px; color: green;"">+</div>","","","","","","","","","","",""
"","null","image-keyboard-response","103","2.0.0","196909","pmkev4nz5vv","tardigrade666","null","stimuli\STATE\USED\Slaptop2.JPG","","","","","Memory","false","null","","","",""
"","null","html-keyboard-response","104","2.0.0","197413","pmkev4nz5vv","tardigrade666","null","<div style=""font-size:60px; color: black;"">+</div>","","","","","","","","","","",""
"","null","image-keyboard-response","105","2.0.0","199417","pmkev4nz5vv","tardigrade666","null","stimuli\EXEMPLAR\USED\Ebunny1.jpg","","","","","Memory","false","null","","","",""
"","null","html-keyboard-response","106","2.0.0","199921","pmkev4nz5vv","tardigrade666","null","<div style=""font-size:60px; color: black;"">+</div>","","","","","","","","","","",""
"","2219","html-button-response","107","2.0.0","202142","pmkev4nz5vv","tardigrade666","0","Are you still there?","","","","","Attention Check","","","","","",""
"","null","image-keyboard-response","108","2.0.0","204144","pmkev4nz5vv","tardigrade666","null","stimuli\EXEMPLAR\USED\Eglobe2.jpg","","","","","Memory","false","null","","","",""
"","null","html-keyboard-response","109","2.0.0","204648","pmkev4nz5vv","tardigrade666","null","<div style=""font-size:60px; color: black;"">+</div>","","","","","","","","","","",""
"","null","image-keyboard-response","110","2.0.0","206651","pmkev4nz5vv","tardigrade666","null","stimuli\STATE\USED\Sschoolbag1.JPG","","","","","Memory","false","null","","","",""
"","null","html-keyboard-response","111","2.0.0","207154","pmkev4nz5vv","tardigrade666","null","<div style=""font-size:60px; color: black;"">+</div>","","","","","","","","","","",""
"","null","image-keyboard-response","112","2.0.0","209157","pmkev4nz5vv","tardigrade666","null","stimuli\EXEMPLAR\USED\Eswimsuit1.jpg","","","","","Memory","false","null","","","",""
"","null","html-keyboard-response","113","2.0.0","209659","pmkev4nz5vv","tardigrade666","null","<div style=""font-size:60px; color: black;"">+</div>","","","","","","","","","","",""
"","null","image-keyboard-response","114","2.0.0","211664","pmkev4nz5vv","tardigrade666","null","stimuli\STATE\USED\Sscanner2.JPG","","","","","Memory","false","null","","","",""
"","null","html-keyboard-response","115","2.0.0","212166","pmkev4nz5vv","tardigrade666","null","<div style=""font-size:60px; color: black;"">+</div>","","","","","","","","","","",""
"","null","image-keyboard-response","116","2.0.0","214169","pmkev4nz5vv","tardigrade666","null","stimuli\EXEMPLAR\USED\Eglobe2.jpg","","","","","Memory","true","null","","","",""
"","null","html-keyboard-response","117","2.0.0","214672","pmkev4nz5vv","tardigrade666","null","<div style=""font-size:60px; color: black;"">+</div>","","","","","","","","","","",""
"","null","image-keyboard-response","118","2.0.0","216674","pmkev4nz5vv","tardigrade666","null","stimuli\STATE\USED\Sclipboard1.jpg","","","","","Memory","false","null","","","",""
"","null","html-keyboard-response","119","2.0.0","217177","pmkev4nz5vv","tardigrade666","null","<div style=""font-size:60px; color: black;"">+</div>","","","","","","","","","","",""
"","null","image-keyboard-response","120","2.0.0","219182","pmkev4nz5vv","tardigrade666","null","stimuli\STATE\USED\Sbox2.jpg","","","","","Memory","false","null","","","",""
"","null","html-keyboard-response","121","2.0.0","219685","pmkev4nz5vv","tardigrade666","null","<div style=""font-size:60px; color: black;"">+</div>","","","","","","","","","","",""
"","null","image-keyboard-response","122","2.0.0","221689","pmkev4nz5vv","tardigrade666","null","stimuli\STATE\USED\Sbrushes2.jpg","","","","","Memory","false","null","","","",""
"","null","html-keyboard-response","123","2.0.0","222192","pmkev4nz5vv","tardigrade666","null","<div style=""font-size:60px; color: black;"">+</div>","","","","","","","","","","",""
"","null","image-keyboard-response","124","2.0.0","224196","pmkev4nz5vv","tardigrade666","null","stimuli\STATE\USED\Stiger1.jpg","","","","","Memory","false","null","","","",""
"","null","html-keyboard-response","125","2.0.0","224699","pmkev4nz5vv","tardigrade666","null","<div style=""font-size:60px; color: black;"">+</div>","","","","","","","","","","",""
"","null","image-keyboard-response","126","2.0.0","226703","pmkev4nz5vv","tardigrade666","null","stimuli\EXEMPLAR\USED\Esuitcase2.jpg","","","","","Memory","false","null","","","",""
"","null","html-keyboard-response","127","2.0.0","227207","pmkev4nz5vv","tardigrade666","null","<div style=""font-size:60px; color: black;"">+</div>","","","","","","","","","","",""
"","null","image-keyboard-response","128","2.0.0","229209","pmkev4nz5vv","tardigrade666","null","stimuli\EXEMPLAR\USED\Efolder1.jpg","","","","","Memory","false","null","","","",""
"","null","html-keyboard-response","129","2.0.0","229713","pmkev4nz5vv","tardigrade666","null","<div style=""font-size:60px; color: black;"">+</div>","","","","","","","","","","",""
"","null","image-keyboard-response","130","2.0.0","231715","pmkev4nz5vv","tardigrade666","null","stimuli\EXEMPLAR\USED\Etongs2.jpg","","","","","Memory","false","null","","","",""
"","null","html-keyboard-response","131","2.0.0","232219","pmkev4nz5vv","tardigrade666","null","<div style=""font-size:60px; color: black;"">+</div>","","","","","","","","","","",""
"","null","image-keyboard-response","132","2.0.0","234221","pmkev4nz5vv","tardigrade666","null","stimuli\EXEMPLAR\USED\Eturtle2.jpg","","","","","Memory","false","null","","","",""
"","null","html-keyboard-response","133","2.0.0","234725","pmkev4nz5vv","tardigrade666","null","<div style=""font-size:60px; color: black;"">+</div>","","","","","","","","","","",""
"","null","image-keyboard-response","134","2.0.0","236728","pmkev4nz5vv","tardigrade666","null","stimuli\EXEMPLAR\USED\Esuitcase2.jpg","","","","","Memory","true","null","","","",""
"","null","html-keyboard-response","135","2.0.0","237232","pmkev4nz5vv","tardigrade666","null","<div style=""font-size:60px; color: black;"">+</div>","","","","","","","","","","",""
"","null","image-keyboard-response","136","2.0.0","239235","pmkev4nz5vv","tardigrade666","null","stimuli\EXEMPLAR\USED\Emicroscope2.jpg","","","","","Memory","false","null","","","",""
"","null","html-keyboard-response","137","2.0.0","239738","pmkev4nz5vv","tardigrade666","null","<div style=""font-size:60px; color: black;"">+</div>","","","","","","","","","","",""
"","null","image-keyboard-response","138","2.0.0","241742","pmkev4nz5vv","tardigrade666","null","stimuli\EXEMPLAR\USED\Ebonzai2.jpg","","","","","Memory","false","null","","","",""
"","null","html-keyboard-response","139","2.0.0","242244","pmkev4nz5vv","tardigrade666","null","<div style=""font-size:60px; color: black;"">+</div>","","","","","","","","","","",""
"","null","image-keyboard-response","140","2.0.0","244249","pmkev4nz5vv","tardigrade666","null","stimuli\EXEMPLAR\USED\Ecalculator2.jpg","","","","","Memory","false","null","","","",""
"","null","html-keyboard-response","141","2.0.0","244751","pmkev4nz5vv","tardigrade666","null","<div style=""font-size:60px; color: black;"">+</div>","","","","","","","","","","",""
"","null","image-keyboard-response","142","2.0.0","246754","pmkev4nz5vv","tardigrade666","null","stimuli\STATE\USED\Spadlock1.jpg","","","","","Memory","false","null","","","",""
"","null","html-keyboard-response","143","2.0.0","247256","pmkev4nz5vv","tardigrade666","null","<div style=""font-size:60px; color: black;"">+</div>","","","","","","","","","","",""
"","null","image-keyboard-response","144","2.0.0","249259","pmkev4nz5vv","tardigrade666","null","stimuli\STATE\USED\Sdie1.jpg","","","","","Memory","false","null","","","",""
"","null","html-keyboard-response","145","2.0.0","249763","pmkev4nz5vv","tardigrade666","null","<div style=""font-size:60px; color: black;"">+</div>","","","","","","","","","","",""
"","null","image-keyboard-response","146","2.0.0","251767","pmkev4nz5vv","tardigrade666","null","stimuli\STATE\USED\Schinesefoodbox1.jpg","","","","","Memory","false","null","","","",""
"","null","html-keyboard-response","147","2.0.0","252270","pmkev4nz5vv","tardigrade666","null","<div style=""font-size:60px; color: black;"">+</div>","","","","","","","","","","",""
"","null","image-keyboard-response","148","2.0.0","254274","pmkev4nz5vv","tardigrade666","null","stimuli\STATE\USED\Sboxwhite2.jpg","","","","","Memory","false","null","","","",""
"","null","html-keyboard-response","149","2.0.0","254777","pmkev4nz5vv","tardigrade666","null","<div style=""font-size:60px; color: black;"">+</div>","","","","","","","","","","",""
"","null","image-keyboard-response","150","2.0.0","256781","pmkev4nz5vv","tardigrade666","null","stimuli\STATE\USED\Ssweater1.jpg","","","","","Memory","false","null","","","",""
"","null","html-keyboard-response","151","2.0.0","257283","pmkev4nz5vv","tardigrade666","null","<div style=""font-size:60px; color: black;"">+</div>","","","","","","","","","","",""
"","null","image-keyboard-response","152","2.0.0","259287","pmkev4nz5vv","tardigrade666","null","stimuli\EXEMPLAR\USED\Etoyhand2.jpg","","","","","Memory","false","null","","","",""
"","null","html-keyboard-response","153","2.0.0","259789","pmkev4nz5vv","tardigrade666","null","<div style=""font-size:60px; color: black;"">+</div>","","","","","","","","","","",""
"","null","image-keyboard-response","154","2.0.0","261809","pmkev4nz5vv","tardigrade666","null","stimuli\STATE\USED\Sdishes2.JPG","","","","","Memory","false","null","","","",""
"","null","html-keyboard-response","155","2.0.0","262313","pmkev4nz5vv","tardigrade666","null","<div style=""font-size:60px; color: black;"">+</div>","","","","","","","","","","",""
"","null","image-keyboard-response","156","2.0.0","264317","pmkev4nz5vv","tardigrade666","null","stimuli\EXEMPLAR\USED\Estapler1.jpg","","","","","Memory","false","null","","","",""
"","null","html-keyboard-response","157","2.0.0","264821","pmkev4nz5vv","tardigrade666","null","<div style=""font-size:60px; color: black;"">+</div>","","","","","","","","","","",""
"","null","image-keyboard-response","158","2.0.0","266824","pmkev4nz5vv","tardigrade666","null","stimuli\EXEMPLAR\USED\Enozzle2.jpg","","","","","Memory","false","null","","","",""
"","null","html-keyboard-response","159","2.0.0","267327","pmkev4nz5vv","tardigrade666","null","<div style=""font-size:60px; color: black;"">+</div>","","","","","","","","","","",""
"","null","image-keyboard-response","160","2.0.0","269331","pmkev4nz5vv","tardigrade666","null","stimuli\STATE\USED\Swaffleiron2.jpg","","","","","Memory","false","null","","","",""
"","null","html-keyboard-response","161","2.0.0","269835","pmkev4nz5vv","tardigrade666","null","<div style=""font-size:60px; color: black;"">+</div>","","","","","","","","","","",""
"","null","image-keyboard-response","162","2.0.0","271756","pmkev4nz5vv","tardigrade666","null","stimuli\EXEMPLAR\USED\Ebicycle1.jpg","","","","","Memory","false","null","","","",""
"","null","html-keyboard-response","163","2.0.0","272259","pmkev4nz5vv","tardigrade666","null","<div style=""font-size:60px; color: black;"">+</div>","","","","","","","","","","",""
"","null","image-keyboard-response","164","2.0.0","274262","pmkev4nz5vv","tardigrade666","null","stimuli\EXEMPLAR\USED\Ehanger2.jpg","","","","","Memory","false","null","","","",""
"","null","html-keyboard-response","165","2.0.0","274765","pmkev4nz5vv","tardigrade666","null","<div style=""font-size:60px; color: black;"">+</div>","","","","","","","","","","",""
"","null","image-keyboard-response","166","2.0.0","276769","pmkev4nz5vv","tardigrade666","null","stimuli\STATE\USED\Seggplant2.jpg","","","","","Memory","false","null","","","",""
"","null","html-keyboard-response","167","2.0.0","277273","pmkev4nz5vv","tardigrade666","null","<div style=""font-size:60px; color: black;"">+</div>","","","","","","","","","","",""
"","973","image-keyboard-response","168","2.0.0","279276","pmkev4nz5vv","tardigrade666"," ","stimuli\STATE\USED\Swaffleiron2.jpg","","","","","Memory","true","true","","","",""
"","null","html-keyboard-response","169","2.0.0","279780","pmkev4nz5vv","tardigrade666","null","<div style=""font-size:60px; color: green;"">+</div>","","","","","","","","","","",""
"","null","image-keyboard-response","170","2.0.0","281783","pmkev4nz5vv","tardigrade666","null","stimuli\STATE\USED\Scontainer1.JPG","","","","","Memory","false","null","","","",""
"","null","html-keyboard-response","171","2.0.0","282286","pmkev4nz5vv","tardigrade666","null","<div style=""font-size:60px; color: black;"">+</div>","","","","","","","","","","",""
"","null","image-keyboard-response","172","2.0.0","284289","pmkev4nz5vv","tardigrade666","null","stimuli\EXEMPLAR\USED\Echeeses1.jpg","","","","","Memory","false","null","","","",""
"","null","html-keyboard-response","173","2.0.0","284791","pmkev4nz5vv","tardigrade666","null","<div style=""font-size:60px; color: black;"">+</div>","","","","","","","","","","",""
"","null","image-keyboard-response","174","2.0.0","286795","pmkev4nz5vv","tardigrade666","null","stimuli\EXEMPLAR\USED\Elei2.jpg","","","","","Memory","false","null","","","",""
"","null","html-keyboard-response","175","2.0.0","287298","pmkev4nz5vv","tardigrade666","null","<div style=""font-size:60px; color: black;"">+</div>","","","","","","","","","","",""
"","null","image-keyboard-response","176","2.0.0","289302","pmkev4nz5vv","tardigrade666","null","stimuli\EXEMPLAR\USED\Ebracelet1.jpg","","","","","Memory","false","null","","","",""
"","null","html-keyboard-response","177","2.0.0","289806","pmkev4nz5vv","tardigrade666","null","<div style=""font-size:60px; color: black;"">+</div>","","","","","","","","","","",""
"","null","image-keyboard-response","178","2.0.0","291810","pmkev4nz5vv","tardigrade666","null","stimuli\STATE\USED\Scontainer1.JPG","","","","","Memory","true","null","","","",""
"","null","html-keyboard-response","179","2.0.0","292313","pmkev4nz5vv","tardigrade666","null","<div style=""font-size:60px; color: black;"">+</div>","","","","","","","","","","",""
"","null","image-keyboard-response","180","2.0.0","294317","pmkev4nz5vv","tardigrade666","null","stimuli\STATE\USED\Sdonut2.jpg","","","","","Memory","false","null","","","",""
"","null","html-keyboard-response","181","2.0.0","294821","pmkev4nz5vv","tardigrade666","null","<div style=""font-size:60px; color: black;"">+</div>","","","","","","","","","","",""
"","null","image-keyboard-response","182","2.0.0","296825","pmkev4nz5vv","tardigrade666","null","stimuli\EXEMPLAR\USED\Ehoe2.jpg","","","","","Memory","false","null","","","",""
"","null","html-keyboard-response","183","2.0.0","297328","pmkev4nz5vv","tardigrade666","null","<div style=""font-size:60px; color: black;"">+</div>","","","","","","","","","","",""
"","null","image-keyboard-response","184","2.0.0","299331","pmkev4nz5vv","tardigrade666","null","stimuli\EXEMPLAR\USED\Etrain1.jpg","","","","","Memory","false","null","","","",""
"","null","html-keyboard-response","185","2.0.0","299834","pmkev4nz5vv","tardigrade666","null","<div style=""font-size:60px; color: black;"">+</div>","","","","","","","","","","",""
"","null","image-keyboard-response","186","2.0.0","301838","pmkev4nz5vv","tardigrade666","null","stimuli\STATE\USED\Sbureau1.JPG","","","","","Memory","false","null","","","",""
"","null","html-keyboard-response","187","2.0.0","302340","pmkev4nz5vv","tardigrade666","null","<div style=""font-size:60px; color: black;"">+</div>","","","","","","","","","","",""
"","null","image-keyboard-response","188","2.0.0","304342","pmkev4nz5vv","tardigrade666","null","stimuli\STATE\USED\Sgiftbox2.jpg","","","","","Memory","false","null","","","",""
"","null","html-keyboard-response","189","2.0.0","304845","pmkev4nz5vv","tardigrade666","null","<div style=""font-size:60px; color: black;"">+</div>","","","","","","","","","","",""
"","854","image-keyboard-response","190","2.0.0","306849","pmkev4nz5vv","tardigrade666"," ","stimuli\EXEMPLAR\USED\Ehoe2.jpg","","","","","Memory","true","true","","","",""
"","null","html-keyboard-response","191","2.0.0","307353","pmkev4nz5vv","tardigrade666","null","<div style=""font-size:60px; color: green;"">+</div>","","","","","","","","","","",""
"","null","image-keyboard-response","192","2.0.0","309355","pmkev4nz5vv","tardigrade666","null","stimuli\STATE\USED\Sbriefcasemetal1.JPG","","","","","Memory","false","null","","","",""
"","null","html-keyboard-response","193","2.0.0","309859","pmkev4nz5vv","tardigrade666","null","<div style=""font-size:60px; color: black;"">+</div>","","","","","","","","","","",""
"","null","image-keyboard-response","194","2.0.0","311862","pmkev4nz5vv","tardigrade666","null","stimuli\STATE\USED\Smedicaltape2.jpg","","","","","Memory","false","null","","","",""
"","null","html-keyboard-response","195","2.0.0","312364","pmkev4nz5vv","tardigrade666","null","<div style=""font-size:60px; color: black;"">+</div>","","","","","","","","","","",""
"","null","image-keyboard-response","196","2.0.0","314367","pmkev4nz5vv","tardigrade666","null","stimuli\STATE\USED\Sscissors1.JPG","","","","","Memory","false","null","","","",""
"","null","html-keyboard-response","197","2.0.0","314871","pmkev4nz5vv","tardigrade666","null","<div style=""font-size:60px; color: black;"">+</div>","","","","","","","","","","",""
"","null","image-keyboard-response","198","2.0.0","316874","pmkev4nz5vv","tardigrade666","null","stimuli\STATE\USED\Sgrinder1.jpg","","","","","Memory","false","null","","","",""
"","null","html-keyboard-response","199","2.0.0","317377","pmkev4nz5vv","tardigrade666","null","<div style=""font-size:60px; color: black;"">+</div>","","","","","","","","","","",""
"","null","image-keyboard-response","200","2.0.0","319379","pmkev4nz5vv","tardigrade666","null","stimuli\EXEMPLAR\USED\Eplate2.jpg","","","","","Memory","false","null","","","",""
"","null","html-keyboard-response","201","2.0.0","319883","pmkev4nz5vv","tardigrade666","null","<div style=""font-size:60px; color: black;"">+</div>","","","","","","","","","","",""
"","null","image-keyboard-response","202","2.0.0","321886","pmkev4nz5vv","tardigrade666","null","stimuli\STATE\USED\Smetronome1.jpg","","","","","Memory","false","null","","","",""
"","null","html-keyboard-response","203","2.0.0","322389","pmkev4nz5vv","tardigrade666","null","<div style=""font-size:60px; color: black;"">+</div>","","","","","","","","","","",""
"","782","image-keyboard-response","204","2.0.0","324392","pmkev4nz5vv","tardigrade666"," ","stimuli\STATE\USED\Sscissors1.JPG","","","","","Memory","true","true","","","",""
"","null","html-keyboard-response","205","2.0.0","324895","pmkev4nz5vv","tardigrade666","null","<div style=""font-size:60px; color: green;"">+</div>","","","","","","","","","","",""
"","null","image-keyboard-response","206","2.0.0","326898","pmkev4nz5vv","tardigrade666","null","stimuli\EXEMPLAR\USED\Ebinoculars2.jpg","","","","","Memory","false","null","","","",""
"","null","html-keyboard-response","207","2.0.0","327402","pmkev4nz5vv","tardigrade666","null","<div style=""font-size:60px; color: black;"">+</div>","","","","","","","","","","",""
"","null","image-keyboard-response","208","2.0.0","329405","pmkev4nz5vv","tardigrade666","null","stimuli\EXEMPLAR\USED\Ecamera1.jpg","","","","","Memory","false","null","","","",""
"","null","html-keyboard-response","209","2.0.0","329908","pmkev4nz5vv","tardigrade666","null","<div style=""font-size:60px; color: black;"">+</div>","","","","","","","","","","",""
"","1811","html-button-response","210","2.0.0","331721","pmkev4nz5vv","tardigrade666","0","Are you still there?","","","","","Attention Check","","","","","",""
"","null","image-keyboard-response","211","2.0.0","333724","pmkev4nz5vv","tardigrade666","null","stimuli\EXEMPLAR\USED\Estarfish1.jpg","","","","","Memory","false","null","","","",""
"","null","html-keyboard-response","212","2.0.0","334227","pmkev4nz5vv","tardigrade666","null","<div style=""font-size:60px; color: black;"">+</div>","","","","","","","","","","",""
"","null","image-keyboard-response","213","2.0.0","336229","pmkev4nz5vv","tardigrade666","null","stimuli\STATE\USED\Spatiotable2.jpg","","","","","Memory","false","null","","","",""
"","null","html-keyboard-response","214","2.0.0","336731","pmkev4nz5vv","tardigrade666","null","<div style=""font-size:60px; color: black;"">+</div>","","","","","","","","","","",""
"","null","image-keyboard-response","215","2.0.0","338735","pmkev4nz5vv","tardigrade666","null","stimuli\EXEMPLAR\USED\Etoykeys2.JPG","","","","","Memory","false","null","","","",""
"","null","html-keyboard-response","216","2.0.0","339237","pmkev4nz5vv","tardigrade666","null","<div style=""font-size:60px; color: black;"">+</div>","","","","","","","","","","",""
"","886","image-keyboard-response","217","2.0.0","341240","pmkev4nz5vv","tardigrade666"," ","stimuli\EXEMPLAR\USED\Ecamera1.jpg","","","","","Memory","true","true","","","",""
"","null","html-keyboard-response","218","2.0.0","341743","pmkev4nz5vv","tardigrade666","null","<div style=""font-size:60px; color: green;"">+</div>","","","","","","","","","","",""
"","null","image-keyboard-response","219","2.0.0","343746","pmkev4nz5vv","tardigrade666","null","stimuli\STATE\USED\Sbrie2.JPG","","","","","Memory","false","null","","","",""
"","null","html-keyboard-response","220","2.0.0","344249","pmkev4nz5vv","tardigrade666","null","<div style=""font-size:60px; color: black;"">+</div>","","","","","","","","","","",""
"","null","image-keyboard-response","221","2.0.0","346252","pmkev4nz5vv","tardigrade666","null","stimuli\STATE\USED\Sdrum1.jpg","","","","","Memory","false","null","","","",""
"","null","html-keyboard-response","222","2.0.0","346755","pmkev4nz5vv","tardigrade666","null","<div style=""font-size:60px; color: black;"">+</div>","","","","","","","","","","",""
"","null","image-keyboard-response","223","2.0.0","348758","pmkev4nz5vv","tardigrade666","null","stimuli\STATE\USED\Spotpan2.JPG","","","","","Memory","false","null","","","",""
"","null","html-keyboard-response","224","2.0.0","349261","pmkev4nz5vv","tardigrade666","null","<div style=""font-size:60px; color: black;"">+</div>","","","","","","","","","","",""
"","null","image-keyboard-response","225","2.0.0","351263","pmkev4nz5vv","tardigrade666","null","stimuli\EXEMPLAR\USED\Ehorn1.jpg","","","","","Memory","false","null","","","",""
"","null","html-keyboard-response","226","2.0.0","351765","pmkev4nz5vv","tardigrade666","null","<div style=""font-size:60px; color: black;"">+</div>","","","","","","","","","","",""
"","829","image-keyboard-response","227","2.0.0","353769","pmkev4nz5vv","tardigrade666"," ","stimuli\STATE\USED\Sbrie2.JPG","","","","","Memory","true","true","","","",""
"","null","html-keyboard-response","228","2.0.0","354272","pmkev4nz5vv","tardigrade666","null","<div style=""font-size:60px; color: green;"">+</div>","","","","","","","","","","",""
"","null","image-keyboard-response","229","2.0.0","356276","pmkev4nz5vv","tardigrade666","null","stimuli\EXEMPLAR\USED\Esunglasses2.jpg","","","","","Memory","false","null","","","",""
"","null","html-keyboard-response","230","2.0.0","356778","pmkev4nz5vv","tardigrade666","null","<div style=""font-size:60px; color: black;"">+</div>","","","","","","","","","","",""
"","null","image-keyboard-response","231","2.0.0","358781","pmkev4nz5vv","tardigrade666","null","stimuli\STATE\USED\Sseats2.jpg","","","","","Memory","false","null","","","",""
"","null","html-keyboard-response","232","2.0.0","359283","pmkev4nz5vv","tardigrade666","null","<div style=""font-size:60px; color: black;"">+</div>","","","","","","","","","","",""
"","null","image-keyboard-response","233","2.0.0","361286","pmkev4nz5vv","tardigrade666","null","stimuli\EXEMPLAR\USED\Egame2.jpg","","","","","Memory","false","null","","","",""
"","null","html-keyboard-response","234","2.0.0","361788","pmkev4nz5vv","tardigrade666","null","<div style=""font-size:60px; color: black;"">+</div>","","","","","","","","","","",""
"","null","image-keyboard-response","235","2.0.0","363791","pmkev4nz5vv","tardigrade666","null","stimuli\STATE\USED\Spolarbear1.jpg","","","","","Memory","false","null","","","",""
"","null","html-keyboard-response","236","2.0.0","364293","pmkev4nz5vv","tardigrade666","null","<div style=""font-size:60px; color: black;"">+</div>","","","","","","","","","","",""
"","null","image-keyboard-response","237","2.0.0","366296","pmkev4nz5vv","tardigrade666","null","stimuli\EXEMPLAR\USED\Esunglasses2.jpg","","","","","Memory","true","null","","","",""
"","null","html-keyboard-response","238","2.0.0","366800","pmkev4nz5vv","tardigrade666","null","<div style=""font-size:60px; color: black;"">+</div>","","","","","","","","","","",""
"","null","image-keyboard-response","239","2.0.0","368803","pmkev4nz5vv","tardigrade666","null","stimuli\EXEMPLAR\USED\Ehelmet1.jpg","","","","","Memory","false","null","","","",""
"","null","html-keyboard-response","240","2.0.0","369306","pmkev4nz5vv","tardigrade666","null","<div style=""font-size:60px; color: black;"">+</div>","","","","","","","","","","",""
"","null","image-keyboard-response","241","2.0.0","371310","pmkev4nz5vv","tardigrade666","null","stimuli\STATE\USED\Sphoneold2.jpg","","","","","Memory","false","null","","","",""
"","null","html-keyboard-response","242","2.0.0","371813","pmkev4nz5vv","tardigrade666","null","<div style=""font-size:60px; color: black;"">+</div>","","","","","","","","","","",""
"","null","image-keyboard-response","243","2.0.0","373817","pmkev4nz5vv","tardigrade666","null","stimuli\EXEMPLAR\USED\Edispenser2.jpg","","","","","Memory","false","null","","","",""
"","null","html-keyboard-response","244","2.0.0","374320","pmkev4nz5vv","tardigrade666","null","<div style=""font-size:60px; color: black;"">+</div>","","","","","","","","","","",""
"","null","image-keyboard-response","245","2.0.0","376324","pmkev4nz5vv","tardigrade666","null","stimuli\STATE\USED\Sbooks2.JPG","","","","","Memory","false","null","","","",""
"","null","html-keyboard-response","246","2.0.0","376826","pmkev4nz5vv","tardigrade666","null","<div style=""font-size:60px; color: black;"">+</div>","","","","","","","","","","",""
"","null","image-keyboard-response","247","2.0.0","378829","pmkev4nz5vv","tardigrade666","null","stimuli\EXEMPLAR\USED\Eguitar2.jpg","","","","","Memory","false","null","","","",""
"","null","html-keyboard-response","248","2.0.0","379333","pmkev4nz5vv","tardigrade666","null","<div style=""font-size:60px; color: black;"">+</div>","","","","","","","","","","",""
"","null","image-keyboard-response","249","2.0.0","381336","pmkev4nz5vv","tardigrade666","null","stimuli\STATE\USED\Srhino1.jpg","","","","","Memory","false","null","","","",""
"","null","html-keyboard-response","250","2.0.0","381839","pmkev4nz5vv","tardigrade666","null","<div style=""font-size:60px; color: black;"">+</div>","","","","","","","","","","",""
"","null","image-keyboard-response","251","2.0.0","383842","pmkev4nz5vv","tardigrade666","null","stimuli\STATE\USED\Scoffeemaker1.JPG","","","","","Memory","false","null","","","",""
"","null","html-keyboard-response","252","2.0.0","384345","pmkev4nz5vv","tardigrade666","null","<div style=""font-size:60px; color: black;"">+</div>","","","","","","","","","","",""
"","null","image-keyboard-response","253","2.0.0","386348","pmkev4nz5vv","tardigrade666","null","stimuli\EXEMPLAR\USED\Emuffin2.jpg","","","","","Memory","false","null","","","",""
"","null","html-keyboard-response","254","2.0.0","386851","pmkev4nz5vv","tardigrade666","null","<div style=""font-size:60px; color: black;"">+</div>","","","","","","","","","","",""
"","null","image-keyboard-response","255","2.0.0","388854","pmkev4nz5vv","tardigrade666","null","stimuli\EXEMPLAR\USED\Epeppers1.jpg","","","","","Memory","false","null","","","",""
"","null","html-keyboard-response","256","2.0.0","389358","pmkev4nz5vv","tardigrade666","null","<div style=""font-size:60px; color: black;"">+</div>","","","","","","","","","","",""
"","null","image-keyboard-response","257","2.0.0","391360","pmkev4nz5vv","tardigrade666","null","stimuli\EXEMPLAR\USED\Escroll2.jpg","","","","","Memory","false","null","","","",""
"","null","html-keyboard-response","258","2.0.0","391863","pmkev4nz5vv","tardigrade666","null","<div style=""font-size:60px; color: black;"">+</div>","","","","","","","","","","",""
"","null","image-keyboard-response","259","2.0.0","393866","pmkev4nz5vv","tardigrade666","null","stimuli\EXEMPLAR\USED\Ecake1.jpg","","","","","Memory","false","null","","","",""
"","null","html-keyboard-response","260","2.0.0","394369","pmkev4nz5vv","tardigrade666","null","<div style=""font-size:60px; color: black;"">+</div>","","","","","","","","","","",""
"","null","image-keyboard-response","261","2.0.0","396371","pmkev4nz5vv","tardigrade666","null","stimuli\EXEMPLAR\USED\Ebread2.jpg","","","","","Memory","false","null","","","",""
"","null","html-keyboard-response","262","2.0.0","396874","pmkev4nz5vv","tardigrade666","null","<div style=""font-size:60px; color: black;"">+</div>","","","","","","","","","","",""
"","1008","image-keyboard-response","263","2.0.0","398876","pmkev4nz5vv","tardigrade666"," ","stimuli\STATE\USED\Sscales1.jpg","","","","","Memory","false","false","","","",""
"","null","html-keyboard-response","264","2.0.0","399379","pmkev4nz5vv","tardigrade666","null","<div style=""font-size:60px; color: red;"">+</div>","","","","","","","","","","",""
"","null","image-keyboard-response","265","2.0.0","401383","pmkev4nz5vv","tardigrade666","null","stimuli\STATE\USED\Sredcabbage1.jpg","","","","","Memory","false","null","","","",""
"","null","html-keyboard-response","266","2.0.0","401885","pmkev4nz5vv","tardigrade666","null","<div style=""font-size:60px; color: black;"">+</div>","","","","","","","","","","",""
"","null","image-keyboard-response","267","2.0.0","403888","pmkev4nz5vv","tardigrade666","null","stimuli\STATE\USED\Shairbrush2.jpg","","","","","Memory","false","null","","","",""
"","null","html-keyboard-response","268","2.0.0","404392","pmkev4nz5vv","tardigrade666","null","<div style=""font-size:60px; color: black;"">+</div>","","","","","","","","","","",""
"","null","image-keyboard-response","269","2.0.0","406394","pmkev4nz5vv","tardigrade666","null","stimuli\STATE\USED\Sskull2.jpg","","","","","Memory","false","null","","","",""
"","null","html-keyboard-response","270","2.0.0","406898","pmkev4nz5vv","tardigrade666","null","<div style=""font-size:60px; color: black;"">+</div>","","","","","","","","","","",""
"","null","image-keyboard-response","271","2.0.0","408900","pmkev4nz5vv","tardigrade666","null","stimuli\EXEMPLAR\USED\Etoyplane1.jpg","","","","","Memory","false","null","","","",""
"","null","html-keyboard-response","272","2.0.0","409403","pmkev4nz5vv","tardigrade666","null","<div style=""font-size:60px; color: black;"">+</div>","","","","","","","","","","",""
"","null","image-keyboard-response","273","2.0.0","411407","pmkev4nz5vv","tardigrade666","null","stimuli\STATE\USED\Srainbowslice2.jpg","","","","","Memory","false","null","","","",""
"","null","html-keyboard-response","274","2.0.0","411909","pmkev4nz5vv","tardigrade666","null","<div style=""font-size:60px; color: black;"">+</div>","","","","","","","","","","",""
"","null","image-keyboard-response","275","2.0.0","413912","pmkev4nz5vv","tardigrade666","null","stimuli\EXEMPLAR\USED\Echopsticks1.jpg","","","","","Memory","false","null","","","",""
"","null","html-keyboard-response","276","2.0.0","414415","pmkev4nz5vv","tardigrade666","null","<div style=""font-size:60px; color: black;"">+</div>","","","","","","","","","","",""
"","791","image-keyboard-response","277","2.0.0","416420","pmkev4nz5vv","tardigrade666"," ","stimuli\STATE\USED\Sskull2.jpg","","","","","Memory","true","true","","","",""
"","null","html-keyboard-response","278","2.0.0","416923","pmkev4nz5vv","tardigrade666","null","<div style=""font-size:60px; color: green;"">+</div>","","","","","","","","","","",""
"","null","image-keyboard-response","279","2.0.0","418926","pmkev4nz5vv","tardigrade666","null","stimuli\EXEMPLAR\USED\Eicecream1.jpg","","","","","Memory","false","null","","","",""
"","null","html-keyboard-response","280","2.0.0","419429","pmkev4nz5vv","tardigrade666","null","<div style=""font-size:60px; color: black;"">+</div>","","","","","","","","","","",""
"","null","image-keyboard-response","281","2.0.0","421432","pmkev4nz5vv","tardigrade666","null","stimuli\EXEMPLAR\USED\Eheadphones2.jpg","","","","","Memory","false","null","","","",""
"","null","html-keyboard-response","282","2.0.0","421934","pmkev4nz5vv","tardigrade666","null","<div style=""font-size:60px; color: black;"">+</div>","","","","","","","","","","",""
"","null","image-keyboard-response","283","2.0.0","423936","pmkev4nz5vv","tardigrade666","null","stimuli\EXEMPLAR\USED\Earch1.jpg","","","","","Memory","false","null","","","",""
"","null","html-keyboard-response","284","2.0.0","424440","pmkev4nz5vv","tardigrade666","null","<div style=""font-size:60px; color: black;"">+</div>","","","","","","","","","","",""
"","null","image-keyboard-response","285","2.0.0","426443","pmkev4nz5vv","tardigrade666","null","stimuli\STATE\USED\Spestle2.jpg","","","","","Memory","false","null","","","",""
"","null","html-keyboard-response","286","2.0.0","426945","pmkev4nz5vv","tardigrade666","null","<div style=""font-size:60px; color: black;"">+</div>","","","","","","","","","","",""
"","726","image-keyboard-response","287","2.0.0","428949","pmkev4nz5vv","tardigrade666"," ","stimuli\EXEMPLAR\USED\Eicecream1.jpg","","","","","Memory","true","true","","","",""
"","null","html-keyboard-response","288","2.0.0","429452","pmkev4nz5vv","tardigrade666","null","<div style=""font-size:60px; color: green;"">+</div>","","","","","","","","","","",""
"","null","image-keyboard-response","289","2.0.0","431455","pmkev4nz5vv","tardigrade666","null","stimuli\STATE\USED\Shandsign1.JPG","","","","","Memory","false","null","","","",""
"","null","html-keyboard-response","290","2.0.0","431959","pmkev4nz5vv","tardigrade666","null","<div style=""font-size:60px; color: black;"">+</div>","","","","","","","","","","",""
"","null","image-keyboard-response","291","2.0.0","433962","pmkev4nz5vv","tardigrade666","null","stimuli\STATE\USED\Siron1.jpg","","","","","Memory","false","null","","","",""
"","null","html-keyboard-response","292","2.0.0","434465","pmkev4nz5vv","tardigrade666","null","<div style=""font-size:60px; color: black;"">+</div>","","","","","","","","","","",""
"","null","image-keyboard-response","293","2.0.0","436469","pmkev4nz5vv","tardigrade666","null","stimuli\STATE\USED\Scooker1.jpg","","","","","Memory","false","null","","","",""
"","null","html-keyboard-response","294","2.0.0","436972","pmkev4nz5vv","tardigrade666","null","<div style=""font-size:60px; color: black;"">+</div>","","","","","","","","","","",""
"","null","image-keyboard-response","295","2.0.0","438975","pmkev4nz5vv","tardigrade666","null","stimuli\EXEMPLAR\USED\Edinosaur1.jpg","","","","","Memory","false","null","","","",""
"","null","html-keyboard-response","296","2.0.0","439478","pmkev4nz5vv","tardigrade666","null","<div style=""font-size:60px; color: black;"">+</div>","","","","","","","","","","",""
"","null","image-keyboard-response","297","2.0.0","441481","pmkev4nz5vv","tardigrade666","null","stimuli\STATE\USED\Sjuiceglass1.JPG","","","","","Memory","false","null","","","",""
"","null","html-keyboard-response","298","2.0.0","441984","pmkev4nz5vv","tardigrade666","null","<div style=""font-size:60px; color: black;"">+</div>","","","","","","","","","","",""
"","null","image-keyboard-response","299","2.0.0","443987","pmkev4nz5vv","tardigrade666","null","stimuli\EXEMPLAR\USED\Erabbit2.jpg","","","","","Memory","false","null","","","",""
"","null","html-keyboard-response","300","2.0.0","444490","pmkev4nz5vv","tardigrade666","null","<div style=""font-size:60px; color: black;"">+</div>","","","","","","","","","","",""
"","817","image-keyboard-response","301","2.0.0","446494","pmkev4nz5vv","tardigrade666"," ","stimuli\STATE\USED\Scooker1.jpg","","","","","Memory","true","true","","","",""
"","null","html-keyboard-response","302","2.0.0","446998","pmkev4nz5vv","tardigrade666","null","<div style=""font-size:60px; color: green;"">+</div>","","","","","","","","","","",""
"","null","image-keyboard-response","303","2.0.0","449001","pmkev4nz5vv","tardigrade666","null","stimuli\STATE\USED\Sbreadslice2.jpg","","","","","Memory","false","null","","","",""
"","null","html-keyboard-response","304","2.0.0","449505","pmkev4nz5vv","tardigrade666","null","<div style=""font-size:60px; color: black;"">+</div>","","","","","","","","","","",""
"","null","image-keyboard-response","305","2.0.0","451508","pmkev4nz5vv","tardigrade666","null","stimuli\STATE\USED\Spie1.JPG","","","","","Memory","false","null","","","",""
"","null","html-keyboard-response","306","2.0.0","452010","pmkev4nz5vv","tardigrade666","null","<div style=""font-size:60px; color: black;"">+</div>","","","","","","","","","","",""
"","null","image-keyboard-response","307","2.0.0","454011","pmkev4nz5vv","tardigrade666","null","stimuli\STATE\USED\Shandshake1.JPG","","","","","Memory","false","null","","","",""
"","null","html-keyboard-response","308","2.0.0","454513","pmkev4nz5vv","tardigrade666","null","<div style=""font-size:60px; color: black;"">+</div>","","","","","","","","","","",""
"","null","image-keyboard-response","309","2.0.0","456517","pmkev4nz5vv","tardigrade666","null","stimuli\STATE\USED\Sumbrella1.jpg","","","","","Memory","false","null","","","",""
"","null","html-keyboard-response","310","2.0.0","457020","pmkev4nz5vv","tardigrade666","null","<div style=""font-size:60px; color: black;"">+</div>","","","","","","","","","","",""
"","null","image-keyboard-response","311","2.0.0","459024","pmkev4nz5vv","tardigrade666","null","stimuli\STATE\USED\Sdoughhands1.jpg","","","","","Memory","false","null","","","",""
"","null","html-keyboard-response","312","2.0.0","459526","pmkev4nz5vv","tardigrade666","null","<div style=""font-size:60px; color: black;"">+</div>","","","","","","","","","","",""
"","1830","html-button-response","313","2.0.0","461358","pmkev4nz5vv","tardigrade666","0","Are you still there?","","","","","Attention Check","","","","","",""
"","null","image-keyboard-response","314","2.0.0","463360","pmkev4nz5vv","tardigrade666","null","stimuli\STATE\USED\Sbelt1.jpg","","","","","Memory","false","null","","","",""
"","null","html-keyboard-response","315","2.0.0","463864","pmkev4nz5vv","tardigrade666","null","<div style=""font-size:60px; color: black;"">+</div>","","","","","","","","","","",""
"","null","image-keyboard-response","316","2.0.0","465866","pmkev4nz5vv","tardigrade666","null","stimuli\EXEMPLAR\USED\Eballoon2.jpg","","","","","Memory","false","null","","","",""
"","null","html-keyboard-response","317","2.0.0","466369","pmkev4nz5vv","tardigrade666","null","<div style=""font-size:60px; color: black;"">+</div>","","","","","","","","","","",""
"","null","image-keyboard-response","318","2.0.0","468373","pmkev4nz5vv","tardigrade666","null","stimuli\EXEMPLAR\USED\Espraybottle2.jpg","","","","","Memory","false","null","","","",""
"","null","html-keyboard-response","319","2.0.0","468876","pmkev4nz5vv","tardigrade666","null","<div style=""font-size:60px; color: black;"">+</div>","","","","","","","","","","",""
"","null","image-keyboard-response","320","2.0.0","470879","pmkev4nz5vv","tardigrade666","null","stimuli\STATE\USED\Slockbox2.jpg","","","","","Memory","false","null","","","",""
"","null","html-keyboard-response","321","2.0.0","471383","pmkev4nz5vv","tardigrade666","null","<div style=""font-size:60px; color: black;"">+</div>","","","","","","","","","","",""
"","null","image-keyboard-response","322","2.0.0","473385","pmkev4nz5vv","tardigrade666","null","stimuli\EXEMPLAR\USED\Econe2.jpg","","","","","Memory","false","null","","","",""
"","null","html-keyboard-response","323","2.0.0","473888","pmkev4nz5vv","tardigrade666","null","<div style=""font-size:60px; color: black;"">+</div>","","","","","","","","","","",""
"","656","image-keyboard-response","324","2.0.0","475892","pmkev4nz5vv","tardigrade666"," ","stimuli\EXEMPLAR\USED\Eballoon2.jpg","","","","","Memory","true","true","","","",""
"","null","html-keyboard-response","325","2.0.0","476394","pmkev4nz5vv","tardigrade666","null","<div style=""font-size:60px; color: green;"">+</div>","","","","","","","","","","",""
"","null","image-keyboard-response","326","2.0.0","478397","pmkev4nz5vv","tardigrade666","null","stimuli\STATE\USED\Spumpkinpie2.jpg","","","","","Memory","false","null","","","",""
"","null","html-keyboard-response","327","2.0.0","478901","pmkev4nz5vv","tardigrade666","null","<div style=""font-size:60px; color: black;"">+</div>","","","","","","","","","","",""
"","null","image-keyboard-response","328","2.0.0","480903","pmkev4nz5vv","tardigrade666","null","stimuli\STATE\USED\Snapkins2.jpg","","","","","Memory","false","null","","","",""
"","null","html-keyboard-response","329","2.0.0","481406","pmkev4nz5vv","tardigrade666","null","<div style=""font-size:60px; color: black;"">+</div>","","","","","","","","","","",""
"","null","image-keyboard-response","330","2.0.0","483409","pmkev4nz5vv","tardigrade666","null","stimuli\STATE\USED\Speppers1.jpg","","","","","Memory","false","null","","","",""
"","null","html-keyboard-response","331","2.0.0","483911","pmkev4nz5vv","tardigrade666","null","<div style=""font-size:60px; color: black;"">+</div>","","","","","","","","","","",""
"","null","image-keyboard-response","332","2.0.0","485914","pmkev4nz5vv","tardigrade666","null","stimuli\EXEMPLAR\USED\Etoywrench2.jpg","","","","","Memory","false","null","","","",""
"","null","html-keyboard-response","333","2.0.0","486417","pmkev4nz5vv","tardigrade666","null","<div style=""font-size:60px; color: black;"">+</div>","","","","","","","","","","",""
"","null","image-keyboard-response","334","2.0.0","488421","pmkev4nz5vv","tardigrade666","null","stimuli\EXEMPLAR\USED\Eladder1.jpg","","","","","Memory","false","null","","","",""
"","null","html-keyboard-response","335","2.0.0","488924","pmkev4nz5vv","tardigrade666","null","<div style=""font-size:60px; color: black;"">+</div>","","","","","","","","","","",""
"","null","image-keyboard-response","336","2.0.0","490928","pmkev4nz5vv","tardigrade666","null","stimuli\EXEMPLAR\USED\Emoney2.jpg","","","","","Memory","false","null","","","",""
"","null","html-keyboard-response","337","2.0.0","491431","pmkev4nz5vv","tardigrade666","null","<div style=""font-size:60px; color: black;"">+</div>","","","","","","","","","","",""
"","837","image-keyboard-response","338","2.0.0","493436","pmkev4nz5vv","tardigrade666"," ","stimuli\STATE\USED\Speppers1.jpg","","","","","Memory","true","true","","","",""
"","null","html-keyboard-response","339","2.0.0","493939","pmkev4nz5vv","tardigrade666","null","<div style=""font-size:60px; color: green;"">+</div>","","","","","","","","","","",""
"","null","image-keyboard-response","340","2.0.0","495942","pmkev4nz5vv","tardigrade666","null","stimuli\EXEMPLAR\USED\Epliers1.jpg","","","","","Memory","false","null","","","",""
"","null","html-keyboard-response","341","2.0.0","496446","pmkev4nz5vv","tardigrade666","null","<div style=""font-size:60px; color: black;"">+</div>","","","","","","","","","","",""
"","null","image-keyboard-response","342","2.0.0","498449","pmkev4nz5vv","tardigrade666","null","stimuli\EXEMPLAR\USED\Eholepunch1.jpg","","","","","Memory","false","null","","","",""
"","null","html-keyboard-response","343","2.0.0","498952","pmkev4nz5vv","tardigrade666","null","<div style=""font-size:60px; color: black;"">+</div>","","","","","","","","","","",""
"","null","image-keyboard-response","344","2.0.0","500956","pmkev4nz5vv","tardigrade666","null","stimuli\STATE\USED\Sgiftbag1.jpg","","","","","Memory","false","null","","","",""
"","null","html-keyboard-response","345","2.0.0","501459","pmkev4nz5vv","tardigrade666","null","<div style=""font-size:60px; color: black;"">+</div>","","","","","","","","","","",""
"","null","image-keyboard-response","346","2.0.0","503462","pmkev4nz5vv","tardigrade666","null","stimuli\STATE\USED\Sapple1.jpg","","","","","Memory","false","null","","","",""
"","null","html-keyboard-response","347","2.0.0","503966","pmkev4nz5vv","tardigrade666","null","<div style=""font-size:60px; color: black;"">+</div>","","","","","","","","","","",""
"","5940","html-keyboard-response","348","2.0.0","509907","pmkev4nz5vv","tardigrade666"," ","
          <p>In the next part of this experiment, you will see 2 images. Please select the image that you recall from the image stream.</p>
          <p>You will also rate your confidence for each image you recall.</p>
          <p>Press any key to start.</p>
        ","","","","","","","","","","",""
"","2339","html-button-response","349","2.0.0","512247","pmkev4nz5vv","tardigrade666","0","Which of these items did you see before?","","","","","Test","","true","[""stimuli\\STATE\\USED\\Shandmirror2.jpg"",""stimuli\\STATE\\USED\\Shandmirror1.jpg""]","stimuli\STATE\USED\Shandmirror2.jpg","stimuli\STATE\USED\Shandmirror2.jpg",""
"","3999","image-slider-response","350","2.0.0","516248","pmkev4nz5vv","tardigrade666","5","stimuli\STATE\USED\Shandmirror2.jpg","","","","","","","","","","","3"
"","3660","html-button-response","351","2.0.0","519909","pmkev4nz5vv","tardigrade666","0","Which of these items did you see before?","","","","","Test","","true","[""stimuli\\STATE\\USED\\Scontainer1.JPG"",""stimuli\\STATE\\USED\\Scontainer2.JPG""]","stimuli\STATE\USED\Scontainer1.JPG","stimuli\STATE\USED\Scontainer1.JPG",""
"","3586","image-slider-response","352","2.0.0","523497","pmkev4nz5vv","tardigrade666","2","stimuli\STATE\USED\Scontainer1.JPG","","","","","","","","","","","3"
"","1741","html-button-response","353","2.0.0","525239","pmkev4nz5vv","tardigrade666","0","Which of these items did you see before?","","","","","Test","","true","[""stimuli\\STATE\\USED\\Spotpan2.JPG"",""stimuli\\STATE\\USED\\Spotpan1.JPG""]","stimuli\STATE\USED\Spotpan2.JPG","stimuli\STATE\USED\Spotpan2.JPG",""
"","3366","image-slider-response","354","2.0.0","528606","pmkev4nz5vv","tardigrade666","5","stimuli\STATE\USED\Spotpan2.JPG","","","","","","","","","","","3"
"","3723","html-button-response","355","2.0.0","532330","pmkev4nz5vv","tardigrade666","0","Which of these items did you see before?","","","","","Test","","true","[""stimuli\\STATE\\USED\\Sjuiceglass1.JPG"",""stimuli\\STATE\\USED\\Sjuiceglass2.JPG""]","stimuli\STATE\USED\Sjuiceglass1.JPG","stimuli\STATE\USED\Sjuiceglass1.JPG",""
"","2020","image-slider-response","356","2.0.0","534352","pmkev4nz5vv","tardigrade666","1","stimuli\STATE\USED\Sjuiceglass1.JPG","","","","","","","","","","","3"
"","2160","html-button-response","357","2.0.0","536513","pmkev4nz5vv","tardigrade666","1","Which of these items did you see before?","","","","","Test","","true","[""stimuli\\EXEMPLAR\\USED\\Esuitcase1.jpg"",""stimuli\\EXEMPLAR\\USED\\Esuitcase2.jpg""]","stimuli\EXEMPLAR\USED\Esuitcase2.jpg","stimuli\EXEMPLAR\USED\Esuitcase2.jpg",""
"","1905","image-slider-response","358","2.0.0","538420","pmkev4nz5vv","tardigrade666","2","stimuli\EXEMPLAR\USED\Esuitcase2.jpg","","","","","","","","","","","3"
"","15869","html-button-response","359","2.0.0","554290","pmkev4nz5vv","tardigrade666","0","Which of these items did you see before?","","","","","Test","","true","[""stimuli\\STATE\\USED\\Sflask2.jpg"",""stimuli\\STATE\\USED\\Sflask1.jpg""]","stimuli\STATE\USED\Sflask2.jpg","stimuli\STATE\USED\Sflask2.jpg",""
"","2346","image-slider-response","360","2.0.0","556638","pmkev4nz5vv","tardigrade666","1","stimuli\STATE\USED\Sflask2.jpg","","","","","","","","","","","3"
"","2872","html-button-response","361","2.0.0","559512","pmkev4nz5vv","tardigrade666","1","Which of these items did you see before?","","","","","Test","","true","[""stimuli\\EXEMPLAR\\USED\\Emuffler2.jpg"",""stimuli\\EXEMPLAR\\USED\\Emuffler1.jpg""]","stimuli\EXEMPLAR\USED\Emuffler1.jpg","stimuli\EXEMPLAR\USED\Emuffler1.jpg",""
"","4290","image-slider-response","362","2.0.0","563803","pmkev4nz5vv","tardigrade666","3","stimuli\EXEMPLAR\USED\Emuffler1.jpg","","","","","","","","","","","3"
"","1371","html-button-response","363","2.0.0","565176","pmkev4nz5vv","tardigrade666","0","Which of these items did you see before?","","","","","Test","","true","[""stimuli\\EXEMPLAR\\USED\\Estapler1.jpg"",""stimuli\\EXEMPLAR\\USED\\Estapler2.jpg""]","stimuli\EXEMPLAR\USED\Estapler1.jpg","stimuli\EXEMPLAR\USED\Estapler1.jpg",""
"","2174","image-slider-response","364","2.0.0","567351","pmkev4nz5vv","tardigrade666","5","stimuli\EXEMPLAR\USED\Estapler1.jpg","","","","","","","","","","","3"
"","1878","html-button-response","365","2.0.0","569230","pmkev4nz5vv","tardigrade666","0","Which of these items did you see before?","","","","","Test","","true","[""stimuli\\EXEMPLAR\\USED\\Efolder1.jpg"",""stimuli\\EXEMPLAR\\USED\\Efolder2.jpg""]","stimuli\EXEMPLAR\USED\Efolder1.jpg","stimuli\EXEMPLAR\USED\Efolder1.jpg",""
"","2202","image-slider-response","366","2.0.0","571434","pmkev4nz5vv","tardigrade666","1","stimuli\EXEMPLAR\USED\Efolder1.jpg","","","","","","","","","","","3"
"","1917","html-button-response","367","2.0.0","573352","pmkev4nz5vv","tardigrade666","1","Which of these items did you see before?","","","","","Test","","true","[""stimuli\\STATE\\USED\\Sumbrella2.jpg"",""stimuli\\STATE\\USED\\Sumbrella1.jpg""]","stimuli\STATE\USED\Sumbrella1.jpg","stimuli\STATE\USED\Sumbrella1.jpg",""
"","3548","image-slider-response","368","2.0.0","576903","pmkev4nz5vv","tardigrade666","4","stimuli\STATE\USED\Sumbrella1.jpg","","","","","","","","","","","3"
"","6167","html-button-response","369","2.0.0","583071","pmkev4nz5vv","tardigrade666","0","Which of these items did you see before?","","","","","Test","","false","[""stimuli\\EXEMPLAR\\USED\\Echopsticks2.jpg"",""stimuli\\EXEMPLAR\\USED\\Echopsticks1.jpg""]","stimuli\EXEMPLAR\USED\Echopsticks1.jpg","stimuli\EXEMPLAR\USED\Echopsticks2.jpg",""
"","2831","image-slider-response","370","2.0.0","585904","pmkev4nz5vv","tardigrade666","1","stimuli\EXEMPLAR\USED\Echopsticks2.jpg","","","","","","","","","","","3"
"","1017","html-button-response","371","2.0.0","586922","pmkev4nz5vv","tardigrade666","0","Which of these items did you see before?","","","","","Test","","true","[""stimuli\\EXEMPLAR\\USED\\Etoyhand2.jpg"",""stimuli\\EXEMPLAR\\USED\\Etoyhand1.jpg""]","stimuli\EXEMPLAR\USED\Etoyhand2.jpg","stimuli\EXEMPLAR\USED\Etoyhand2.jpg",""
"","2889","image-slider-response","372","2.0.0","589813","pmkev4nz5vv","tardigrade666","5","stimuli\EXEMPLAR\USED\Etoyhand2.jpg","","","","","","","","","","","3"
"","1839","html-button-response","373","2.0.0","591653","pmkev4nz5vv","tardigrade666","0","Which of these items did you see before?","","","","","Test","","true","[""stimuli\\EXEMPLAR\\USED\\Etoywrench2.jpg"",""stimuli\\EXEMPLAR\\USED\\Etoywrench1.jpg""]","stimuli\EXEMPLAR\USED\Etoywrench2.jpg","stimuli\EXEMPLAR\USED\Etoywrench2.jpg",""
"","1679","image-slider-response","374","2.0.0","593333","pmkev4nz5vv","tardigrade666","2","stimuli\EXEMPLAR\USED\Etoywrench2.jpg","","","","","","","","","","","3"
"","1448","html-button-response","375","2.0.0","594782","pmkev4nz5vv","tardigrade666","0","Which of these items did you see before?","","","","","Test","","true","[""stimuli\\EXEMPLAR\\USED\\Eballoon2.jpg"",""stimuli\\EXEMPLAR\\USED\\Eballoon1.jpg""]","stimuli\EXEMPLAR\USED\Eballoon2.jpg","stimuli\EXEMPLAR\USED\Eballoon2.jpg",""
"","2687","image-slider-response","376","2.0.0","597471","pmkev4nz5vv","tardigrade666","5","stimuli\EXEMPLAR\USED\Eballoon2.jpg","","","","","","","","","","","3"
"","1411","html-button-response","377","2.0.0","598883","pmkev4nz5vv","tardigrade666","1","Which of these items did you see before?","","","","","Test","","true","[""stimuli\\EXEMPLAR\\USED\\Emitt1.jpg"",""stimuli\\EXEMPLAR\\USED\\Emitt2.jpg""]","stimuli\EXEMPLAR\USED\Emitt2.jpg","stimuli\EXEMPLAR\USED\Emitt2.jpg",""
"","1811","image-slider-response","378","2.0.0","600696","pmkev4nz5vv","tardigrade666","5","stimuli\EXEMPLAR\USED\Emitt2.jpg","","","","","","","","","","","3"
"","1932","html-button-response","379","2.0.0","602628","pmkev4nz5vv","tardigrade666","1","Which of these items did you see before?","","","","","Test","","true","[""stimuli\\STATE\\USED\\Sdryer2.jpg"",""stimuli\\STATE\\USED\\Sdryer1.jpg""]","stimuli\STATE\USED\Sdryer1.jpg","stimuli\STATE\USED\Sdryer1.jpg",""
"","1662","image-slider-response","380","2.0.0","604292","pmkev4nz5vv","tardigrade666","4","stimuli\STATE\USED\Sdryer1.jpg","","","","","","","","","","","3"
"","1799","html-button-response","381","2.0.0","606091","pmkev4nz5vv","tardigrade666","0","Which of these items did you see before?","","","","","Test","","true","[""stimuli\\EXEMPLAR\\USED\\Ebracelet1.jpg"",""stimuli\\EXEMPLAR\\USED\\Ebracelet2.jpg""]","stimuli\EXEMPLAR\USED\Ebracelet1.jpg","stimuli\EXEMPLAR\USED\Ebracelet1.jpg",""
"","4509","image-slider-response","382","2.0.0","610602","pmkev4nz5vv","tardigrade666","3","stimuli\EXEMPLAR\USED\Ebracelet1.jpg","","","","","","","","","","","3"
"","2713","html-button-response","383","2.0.0","613316","pmkev4nz5vv","tardigrade666","1","Which of these items did you see before?","","","","","Test","","true","[""stimuli\\STATE\\USED\\Scooker2.jpg"",""stimuli\\STATE\\USED\\Scooker1.jpg""]","stimuli\STATE\USED\Scooker1.jpg","stimuli\STATE\USED\Scooker1.jpg",""
"","2014","image-slider-response","384","2.0.0","615331","pmkev4nz5vv","tardigrade666","5","stimuli\STATE\USED\Scooker1.jpg","","","","","","","","","","","3"
"","1266","html-button-response","385","2.0.0","616599","pmkev4nz5vv","tardigrade666","1","Which of these items did you see before?","","","","","Test","","true","[""stimuli\\EXEMPLAR\\USED\\Escroll1.jpg"",""stimuli\\EXEMPLAR\\USED\\Escroll2.jpg""]","stimuli\EXEMPLAR\USED\Escroll2.jpg","stimuli\EXEMPLAR\USED\Escroll2.jpg",""
"","3440","image-slider-response","386","2.0.0","620041","pmkev4nz5vv","tardigrade666","5","stimuli\EXEMPLAR\USED\Escroll2.jpg","","","","","","","","","","","3"
"","5630","html-button-response","387","2.0.0","625672","pmkev4nz5vv","tardigrade666","0","Which of these items did you see before?","","","","","Test","","true","[""stimuli\\EXEMPLAR\\USED\\Ehanger2.jpg"",""stimuli\\EXEMPLAR\\USED\\Ehanger1.jpg""]","stimuli\EXEMPLAR\USED\Ehanger2.jpg","stimuli\EXEMPLAR\USED\Ehanger2.jpg",""
"","2040","image-slider-response","388","2.0.0","627713","pmkev4nz5vv","tardigrade666","1","stimuli\EXEMPLAR\USED\Ehanger2.jpg","","","","","","","","","","","3"
"","1405","html-button-response","389","2.0.0","629120","pmkev4nz5vv","tardigrade666","0","Which of these items did you see before?","","","","","Test","","true","[""stimuli\\STATE\\USED\\Spiggybank1.jpg"",""stimuli\\STATE\\USED\\Spiggybank2.jpg""]","stimuli\STATE\USED\Spiggybank1.jpg","stimuli\STATE\USED\Spiggybank1.jpg",""
"","3261","image-slider-response","390","2.0.0","632383","pmkev4nz5vv","tardigrade666","5","stimuli\STATE\USED\Spiggybank1.jpg","","","","","","","","","","","3"
"","1126","html-button-response","391","2.0.0","633509","pmkev4nz5vv","tardigrade666","0","Which of these items did you see before?","","","","","Test","","true","[""stimuli\\EXEMPLAR\\USED\\Edinosaur1.jpg"",""stimuli\\EXEMPLAR\\USED\\Edinosaur2.jpg""]","stimuli\EXEMPLAR\USED\Edinosaur1.jpg","stimuli\EXEMPLAR\USED\Edinosaur1.jpg",""
"","1903","image-slider-response","392","2.0.0","635414","pmkev4nz5vv","tardigrade666","5","stimuli\EXEMPLAR\USED\Edinosaur1.jpg","","","","","","","","","","","3"
"","1172","html-button-response","393","2.0.0","636587","pmkev4nz5vv","tardigrade666","1","Which of these items did you see before?","","","","","Test","","true","[""stimuli\\STATE\\USED\\Sbooks1.JPG"",""stimuli\\STATE\\USED\\Sbooks2.JPG""]","stimuli\STATE\USED\Sbooks2.JPG","stimuli\STATE\USED\Sbooks2.JPG",""
"","1795","image-slider-response","394","2.0.0","638384","pmkev4nz5vv","tardigrade666","5","stimuli\STATE\USED\Sbooks2.JPG","","","","","","","","","","","3"
"","1445","html-button-response","395","2.0.0","639830","pmkev4nz5vv","tardigrade666","0","Which of these items did you see before?","","","","","Test","","true","[""stimuli\\EXEMPLAR\\USED\\Esantahat2.jpg"",""stimuli\\EXEMPLAR\\USED\\Esantahat1.jpg""]","stimuli\EXEMPLAR\USED\Esantahat2.jpg","stimuli\EXEMPLAR\USED\Esantahat2.jpg",""
"","4082","image-slider-response","396","2.0.0","643914","pmkev4nz5vv","tardigrade666","2","stimuli\EXEMPLAR\USED\Esantahat2.jpg","","","","","","","","","","","3"
"","1880","html-button-response","397","2.0.0","645794","pmkev4nz5vv","tardigrade666","0","Which of these items did you see before?","","","","","Test","","true","[""stimuli\\EXEMPLAR\\USED\\Ehelmet1.jpg"",""stimuli\\EXEMPLAR\\USED\\Ehelmet2.jpg""]","stimuli\EXEMPLAR\USED\Ehelmet1.jpg","stimuli\EXEMPLAR\USED\Ehelmet1.jpg",""
"","1988","image-slider-response","398","2.0.0","647784","pmkev4nz5vv","tardigrade666","2","stimuli\EXEMPLAR\USED\Ehelmet1.jpg","","","","","","","","","","","3"
"","5583","html-button-response","399","2.0.0","653368","pmkev4nz5vv","tardigrade666","0","Which of these items did you see before?","","","","","Test","","false","[""stimuli\\STATE\\USED\\Sbook2.JPG"",""stimuli\\STATE\\USED\\Sbook1.JPG""]","stimuli\STATE\USED\Sbook1.JPG","stimuli\STATE\USED\Sbook2.JPG",""
"","2709","image-slider-response","400","2.0.0","656078","pmkev4nz5vv","tardigrade666","1","stimuli\STATE\USED\Sbook2.JPG","","","","","","","","","","","3"
"","1197","html-button-response","401","2.0.0","657275","pmkev4nz5vv","tardigrade666","0","Which of these items did you see before?","","","","","Test","","true","[""stimuli\\EXEMPLAR\\USED\\Eguitar2.jpg"",""stimuli\\EXEMPLAR\\USED\\Eguitar1.jpg""]","stimuli\EXEMPLAR\USED\Eguitar2.jpg","stimuli\EXEMPLAR\USED\Eguitar2.jpg",""
"","1810","image-slider-response","402","2.0.0","659087","pmkev4nz5vv","tardigrade666","5","stimuli\EXEMPLAR\USED\Eguitar2.jpg","","","","","","","","","","","3"
"","981","html-button-response","403","2.0.0","660069","pmkev4nz5vv","tardigrade666","0","Which of these items did you see before?","","","","","Test","","true","[""stimuli\\STATE\\USED\\Srhino1.jpg"",""stimuli\\STATE\\USED\\Srhino2.jpg""]","stimuli\STATE\USED\Srhino1.jpg","stimuli\STATE\USED\Srhino1.jpg",""
"","2383","image-slider-response","404","2.0.0","662453","pmkev4nz5vv","tardigrade666","5","stimuli\STATE\USED\Srhino1.jpg","","","","","","","","","","","3"
"","1414","html-button-response","405","2.0.0","663868","pmkev4nz5vv","tardigrade666","0","Which of these items did you see before?","","","","","Test","","true","[""stimuli\\EXEMPLAR\\USED\\Ehoe2.jpg"",""stimuli\\EXEMPLAR\\USED\\Ehoe1.jpg""]","stimuli\EXEMPLAR\USED\Ehoe2.jpg","stimuli\EXEMPLAR\USED\Ehoe2.jpg",""
"","3178","image-slider-response","406","2.0.0","667048","pmkev4nz5vv","tardigrade666","2","stimuli\EXEMPLAR\USED\Ehoe2.jpg","","","","","","","","","","","3"
"","2329","html-button-response","407","2.0.0","669378","pmkev4nz5vv","tardigrade666","1","Which of these items did you see before?","","","","","Test","","true","[""stimuli\\STATE\\USED\\Sapplesgreenbasket2.jpg"",""stimuli\\STATE\\USED\\Sapplesgreenbasket1.jpg""]","stimuli\STATE\USED\Sapplesgreenbasket1.jpg","stimuli\STATE\USED\Sapplesgreenbasket1.jpg",""
"","3323","image-slider-response","408","2.0.0","672703","pmkev4nz5vv","tardigrade666","5","stimuli\STATE\USED\Sapplesgreenbasket1.jpg","","","","","","","","","","","3"
"","1000","html-button-response","409","2.0.0","673703","pmkev4nz5vv","tardigrade666","0","Which of these items did you see before?","","","","","Test","","true","[""stimuli\\EXEMPLAR\\USED\\Eremover2.jpg"",""stimuli\\EXEMPLAR\\USED\\Eremover1.jpg""]","stimuli\EXEMPLAR\USED\Eremover2.jpg","stimuli\EXEMPLAR\USED\Eremover2.jpg",""
"","2002","image-slider-response","410","2.0.0","675708","pmkev4nz5vv","tardigrade666","5","stimuli\EXEMPLAR\USED\Eremover2.jpg","","","","","","","","","","","3"
"","15707","html-button-response","411","2.0.0","691416","pmkev4nz5vv","tardigrade666","0","Which of these items did you see before?","","","","","Test","","true","[""stimuli\\STATE\\USED\\Spie1.JPG"",""stimuli\\STATE\\USED\\Spie2.JPG""]","stimuli\STATE\USED\Spie1.JPG","stimuli\STATE\USED\Spie1.JPG",""
"","2298","image-slider-response","412","2.0.0","693716","pmkev4nz5vv","tardigrade666","1","stimuli\STATE\USED\Spie1.JPG","","","","","","","","","","","3"
"","1357","html-button-response","413","2.0.0","695073","pmkev4nz5vv","tardigrade666","0","Which of these items did you see before?","","","","","Test","","true","[""stimuli\\EXEMPLAR\\USED\\Eturtle2.jpg"",""stimuli\\EXEMPLAR\\USED\\Eturtle1.jpg""]","stimuli\EXEMPLAR\USED\Eturtle2.jpg","stimuli\EXEMPLAR\USED\Eturtle2.jpg",""
"","2134","image-slider-response","414","2.0.0","697209","pmkev4nz5vv","tardigrade666","5","stimuli\EXEMPLAR\USED\Eturtle2.jpg","","","","","","","","","","","3"
"","2896","html-button-response","415","2.0.0","700106","pmkev4nz5vv","tardigrade666","1","Which of these items did you see before?","","","","","Test","","true","[""stimuli\\EXEMPLAR\\USED\\Etongs1.jpg"",""stimuli\\EXEMPLAR\\USED\\Etongs2.jpg""]","stimuli\EXEMPLAR\USED\Etongs2.jpg","stimuli\EXEMPLAR\USED\Etongs2.jpg",""
"","2453","image-slider-response","416","2.0.0","702561","pmkev4nz5vv","tardigrade666","3","stimuli\EXEMPLAR\USED\Etongs2.jpg","","","","","","","","","","","3"
"","1368","html-button-response","417","2.0.0","703930","pmkev4nz5vv","tardigrade666","1","Which of these items did you see before?","","","","","Test","","true","[""stimuli\\STATE\\USED\\Stiger2.jpg"",""stimuli\\STATE\\USED\\Stiger1.jpg""]","stimuli\STATE\USED\Stiger1.jpg","stimuli\STATE\USED\Stiger1.jpg",""
"","2879","image-slider-response","418","2.0.0","706812","pmkev4nz5vv","tardigrade666","5","stimuli\STATE\USED\Stiger1.jpg","","","","","","","","","","","3"
"","3702","html-button-response","419","2.0.0","710515","pmkev4nz5vv","tardigrade666","1","Which of these items did you see before?","","","","","Test","","true","[""stimuli\\STATE\\USED\\Speppers2.jpg"",""stimuli\\STATE\\USED\\Speppers1.jpg""]","stimuli\STATE\USED\Speppers1.jpg","stimuli\STATE\USED\Speppers1.jpg",""
"","1822","image-slider-response","420","2.0.0","712338","pmkev4nz5vv","tardigrade666","3","stimuli\STATE\USED\Speppers1.jpg","","","","","","","","","","","3"
"","2956","html-button-response","421","2.0.0","715295","pmkev4nz5vv","tardigrade666","1","Which of these items did you see before?","","","","","Test","","true","[""stimuli\\STATE\\USED\\Sbarnmailbox2.jpg"",""stimuli\\STATE\\USED\\Sbarnmailbox1.jpg""]","stimuli\STATE\USED\Sbarnmailbox1.jpg","stimuli\STATE\USED\Sbarnmailbox1.jpg",""
"","2557","image-slider-response","422","2.0.0","717854","pmkev4nz5vv","tardigrade666","2","stimuli\STATE\USED\Sbarnmailbox1.jpg","","","","","","","","","","","3"
"","1608","html-button-response","423","2.0.0","719462","pmkev4nz5vv","tardigrade666","1","Which of these items did you see before?","","","","","Test","","true","[""stimuli\\STATE\\USED\\Sbreadslice1.jpg"",""stimuli\\STATE\\USED\\Sbreadslice2.jpg""]","stimuli\STATE\USED\Sbreadslice2.jpg","stimuli\STATE\USED\Sbreadslice2.jpg",""
"","1795","image-slider-response","424","2.0.0","721259","pmkev4nz5vv","tardigrade666","4","stimuli\STATE\USED\Sbreadslice2.jpg","","","","","","","","","","","3"
"","1512","html-button-response","425","2.0.0","722772","pmkev4nz5vv","tardigrade666","1","Which of these items did you see before?","","","","","Test","","true","[""stimuli\\EXEMPLAR\\USED\\Eholepunch2.jpg"",""stimuli\\EXEMPLAR\\USED\\Eholepunch1.jpg""]","stimuli\EXEMPLAR\USED\Eholepunch1.jpg","stimuli\EXEMPLAR\USED\Eholepunch1.jpg",""
"","3344","image-slider-response","426","2.0.0","726117","pmkev4nz5vv","tardigrade666","5","stimuli\EXEMPLAR\USED\Eholepunch1.jpg","","","","","","","","","","","3"
"","3243","html-button-response","427","2.0.0","729361","pmkev4nz5vv","tardigrade666","1","Which of these items did you see before?","","","","","Test","","true","[""stimuli\\EXEMPLAR\\USED\\Epeppers2.jpg"",""stimuli\\EXEMPLAR\\USED\\Epeppers1.jpg""]","stimuli\EXEMPLAR\USED\Epeppers1.jpg","stimuli\EXEMPLAR\USED\Epeppers1.jpg",""
"","1734","image-slider-response","428","2.0.0","731097","pmkev4nz5vv","tardigrade666","2","stimuli\EXEMPLAR\USED\Epeppers1.jpg","","","","","","","","","","","3"
"","2772","html-button-response","429","2.0.0","733870","pmkev4nz5vv","tardigrade666","1","Which of these items did you see before?","","","","","Test","","true","[""stimuli\\STATE\\USED\\Ssweater2.jpg"",""stimuli\\STATE\\USED\\Ssweater1.jpg""]","stimuli\STATE\USED\Ssweater1.jpg","stimuli\STATE\USED\Ssweater1.jpg",""
"","1640","image-slider-response","430","2.0.0","735511","pmkev4nz5vv","tardigrade666","2","stimuli\STATE\USED\Ssweater1.jpg","","","","","","","","","","","3"
"","6867","html-button-response","431","2.0.0","742380","pmkev4nz5vv","tardigrade666","0","Which of these items did you see before?","","","","","Test","","true","[""stimuli\\EXEMPLAR\\USED\\Epliers1.jpg"",""stimuli\\EXEMPLAR\\USED\\Epliers2.jpg""]","stimuli\EXEMPLAR\USED\Epliers1.jpg","stimuli\EXEMPLAR\USED\Epliers1.jpg",""
"","1832","image-slider-response","432","2.0.0","744213","pmkev4nz5vv","tardigrade666","1","stimuli\EXEMPLAR\USED\Epliers1.jpg","","","","","","","","","","","3"
"","1593","html-button-response","433","2.0.0","745807","pmkev4nz5vv","tardigrade666","1","Which of these items did you see before?","","","","","Test","","true","[""stimuli\\EXEMPLAR\\USED\\Erabbit1.jpg"",""stimuli\\EXEMPLAR\\USED\\Erabbit2.jpg""]","stimuli\EXEMPLAR\USED\Erabbit2.jpg","stimuli\EXEMPLAR\USED\Erabbit2.jpg",""
"","2445","image-slider-response","434","2.0.0","748254","pmkev4nz5vv","tardigrade666","4","stimuli\EXEMPLAR\USED\Erabbit2.jpg","","","","","","","","","","","3"
"","1744","html-button-response","435","2.0.0","749999","pmkev4nz5vv","tardigrade666","0","Which of these items did you see before?","","","","","Test","","true","[""stimuli\\STATE\\USED\\Sseats2.jpg"",""stimuli\\STATE\\USED\\Sseats1.jpg""]","stimuli\STATE\USED\Sseats2.jpg","stimuli\STATE\USED\Sseats2.jpg",""
"","1934","image-slider-response","436","2.0.0","751934","pmkev4nz5vv","tardigrade666","5","stimuli\STATE\USED\Sseats2.jpg","","","","","","","","","","","3"
"","2516","html-button-response","437","2.0.0","754451","pmkev4nz5vv","tardigrade666","0","Which of these items did you see before?","","","","","Test","","true","[""stimuli\\EXEMPLAR\\USED\\Ebonzai2.jpg"",""stimuli\\EXEMPLAR\\USED\\Ebonzai1.jpg""]","stimuli\EXEMPLAR\USED\Ebonzai2.jpg","stimuli\EXEMPLAR\USED\Ebonzai2.jpg",""
"","2239","image-slider-response","438","2.0.0","756691","pmkev4nz5vv","tardigrade666","1","stimuli\EXEMPLAR\USED\Ebonzai2.jpg","","","","","","","","","","","3"
"","2727","html-button-response","439","2.0.0","759419","pmkev4nz5vv","tardigrade666","1","Which of these items did you see before?","","","","","Test","","false","[""stimuli\\STATE\\USED\\Stypewriter2.jpg"",""stimuli\\STATE\\USED\\Stypewriter1.jpg""]","stimuli\STATE\USED\Stypewriter2.jpg","stimuli\STATE\USED\Stypewriter1.jpg",""
"","2943","image-slider-response","440","2.0.0","762363","pmkev4nz5vv","tardigrade666","1","stimuli\STATE\USED\Stypewriter1.jpg","","","","","","","","","","","3"
"","2281","html-button-response","441","2.0.0","764645","pmkev4nz5vv","tardigrade666","1","Which of these items did you see before?","","","","","Test","","true","[""stimuli\\STATE\\USED\\Sdonut1.jpg"",""stimuli\\STATE\\USED\\Sdonut2.jpg""]","stimuli\STATE\USED\Sdonut2.jpg","stimuli\STATE\USED\Sdonut2.jpg",""
"","1796","image-slider-response","442","2.0.0","766443","pmkev4nz5vv","tardigrade666","5","stimuli\STATE\USED\Sdonut2.jpg","","","","","","","","","","","3"
"","2676","html-button-response","443","2.0.0","769121","pmkev4nz5vv","tardigrade666","1","Which of these items did you see before?","","","","","Test","","true","[""stimuli\\STATE\\USED\\Sredcabbage2.jpg"",""stimuli\\STATE\\USED\\Sredcabbage1.jpg""]","stimuli\STATE\USED\Sredcabbage1.jpg","stimuli\STATE\USED\Sredcabbage1.jpg",""
"","1777","image-slider-response","444","2.0.0","770899","pmkev4nz5vv","tardigrade666","4","stimuli\STATE\USED\Sredcabbage1.jpg","","","","","","","","","","","3"
"","3922","html-button-response","445","2.0.0","774822","pmkev4nz5vv","tardigrade666","0","Which of these items did you see before?","","","","","Test","","true","[""stimuli\\EXEMPLAR\\USED\\Earch1.jpg"",""stimuli\\EXEMPLAR\\USED\\Earch2.jpg""]","stimuli\EXEMPLAR\USED\Earch1.jpg","stimuli\EXEMPLAR\USED\Earch1.jpg",""
"","1787","image-slider-response","446","2.0.0","776611","pmkev4nz5vv","tardigrade666","2","stimuli\EXEMPLAR\USED\Earch1.jpg","","","","","","","","","","","3"
"","3905","html-button-response","447","2.0.0","780517","pmkev4nz5vv","tardigrade666","0","Which of these items did you see before?","","","","","Test","","false","[""stimuli\\EXEMPLAR\\USED\\Echeeses2.jpg"",""stimuli\\EXEMPLAR\\USED\\Echeeses1.jpg""]","stimuli\EXEMPLAR\USED\Echeeses1.jpg","stimuli\EXEMPLAR\USED\Echeeses2.jpg",""
"","1951","image-slider-response","448","2.0.0","782469","pmkev4nz5vv","tardigrade666","1","stimuli\EXEMPLAR\USED\Echeeses2.jpg","","","","","","","","","","","3"
"","223371","survey-text","449","2.0.0","1005842","pmkev4nz5vv","tardigrade666","{""experiment_purpose"":""visual memory"",""Q1"":""I was more confident when there was an obvious color difference between the options (like one item choice is purple), or when it was an animal, but I'm not sure why or if I was actually more accurate. The cake/pie with slices taken out or not was hard."",""technical_issues"":""No""}","","","","","","","","","","","",""
