"success","rt","trial_type","trial_index","plugin_version","time_elapsed","random_id","participant","response","stimulus","timeout","failed_images","failed_audio","failed_video","trial_phase","repeated","correct","choice_images","correct_image","choice","slider_start"
"true","1979","fullscreen","0","2.0.0","2984","po16pvz0ydw","leopard","","","","","","","","","","","","",""
"","2090","survey-text","1","2.0.0","5077","po16pvz0ydw","leopard","{""participant_id"":""leopard""}","","","","","","","","","","","",""
"","3482","html-keyboard-response","2","2.0.0","8560","po16pvz0ydw","leopard"," ","<p>Welcome to the Massive Memory Experiment. Press any key to move on. </p>","","","","","","","","","","",""
"","13054","html-keyboard-response","3","2.0.0","21615","po16pvz0ydw","leopard"," ","
      <div style='width:900px;margin: auto;'><p>In the first section you will see a stream of images, with fixation crosses in between each image.</p>
      <p>Each image will remain on screen for 2 seconds. Your job is to detect images that you have seen before within the experiment. Whenever you see an image that you have seen previously <b>at any point in the stream of images</b>, press the spacebar.</p>
      <p>We will let you know if you have correctly or falsely clicked the spacebar on an image by changing the color of the fixation cross.</p>
      <p>If you press the spacebar correctly (the image really did appear earlier), the fixation cross will turn green. If you pressed the spacebar incorrectly, the fixation cross will turn red.</p>
      <p>Please watch carefully to detect the images that show up again!</p>
      <p>Press any key to start.</p></div>
    ","","","","","","","","","","",""
"true","","preload","4","2.0.0","23331","po16pvz0ydw","leopard","","","false","[]","[]","[]","","","","","","",""
"","null","image-keyboard-response","5","2.0.0","25338","po16pvz0ydw","leopard","null","stimuli\EXEMPLAR\USED\Estapler2.jpg","","","","","Memory","false","null","","","",""
"","null","html-keyboard-response","6","2.0.0","25841","po16pvz0ydw","leopard","null","<div style=""font-size:60px; color: black;"">+</div>","","","","","","","","","","",""
"","null","image-keyboard-response","7","2.0.0","27847","po16pvz0ydw","leopard","null","stimuli\EXEMPLAR\USED\Eplate2.jpg","","","","","Memory","false","null","","","",""
"","null","html-keyboard-response","8","2.0.0","28355","po16pvz0ydw","leopard","null","<div style=""font-size:60px; color: black;"">+</div>","","","","","","","","","","",""
"","null","image-keyboard-response","9","2.0.0","30364","po16pvz0ydw","leopard","null","stimuli\EXEMPLAR\USED\Ebell2.jpg","","","","","Memory","false","null","","","",""
"","null","html-keyboard-response","10","2.0.0","30875","po16pvz0ydw","leopard","null","<div style=""font-size:60px; color: black;"">+</div>","","","","","","","","","","",""
"","null","image-keyboard-response","11","2.0.0","32889","po16pvz0ydw","leopard","null","stimuli\EXEMPLAR\USED\Ebrick2.jpg","","","","","Memory","false","null","","","",""
"","null","html-keyboard-response","12","2.0.0","33400","po16pvz0ydw","leopard","null","<div style=""font-size:60px; color: black;"">+</div>","","","","","","","","","","",""
"","630","image-keyboard-response","13","2.0.0","35411","po16pvz0ydw","leopard"," ","stimuli\EXEMPLAR\USED\Estapler2.jpg","","","","","Memory","true","true","","","",""
"","null","html-keyboard-response","14","2.0.0","35922","po16pvz0ydw","leopard","null","<div style=""font-size:60px; color: green;"">+</div>","","","","","","","","","","",""
"","null","image-keyboard-response","15","2.0.0","37928","po16pvz0ydw","leopard","null","stimuli\EXEMPLAR\USED\Eguitar2.jpg","","","","","Memory","false","null","","","",""
"","null","html-keyboard-response","16","2.0.0","38438","po16pvz0ydw","leopard","null","<div style=""font-size:60px; color: black;"">+</div>","","","","","","","","","","",""
"","null","image-keyboard-response","17","2.0.0","40442","po16pvz0ydw","leopard","null","stimuli\EXEMPLAR\USED\Eholepunch2.jpg","","","","","Memory","false","null","","","",""
"","null","html-keyboard-response","18","2.0.0","40950","po16pvz0ydw","leopard","null","<div style=""font-size:60px; color: black;"">+</div>","","","","","","","","","","",""
"","null","image-keyboard-response","19","2.0.0","42960","po16pvz0ydw","leopard","null","stimuli\STATE\USED\Sbureau2.JPG","","","","","Memory","false","null","","","",""
"","null","html-keyboard-response","20","2.0.0","43471","po16pvz0ydw","leopard","null","<div style=""font-size:60px; color: black;"">+</div>","","","","","","","","","","",""
"","null","image-keyboard-response","21","2.0.0","45480","po16pvz0ydw","leopard","null","stimuli\STATE\USED\Srhino2.jpg","","","","","Memory","false","null","","","",""
"","null","html-keyboard-response","22","2.0.0","45986","po16pvz0ydw","leopard","null","<div style=""font-size:60px; color: black;"">+</div>","","","","","","","","","","",""
"","null","image-keyboard-response","23","2.0.0","47994","po16pvz0ydw","leopard","null","stimuli\EXEMPLAR\USED\Edispenser1.jpg","","","","","Memory","false","null","","","",""
"","null","html-keyboard-response","24","2.0.0","48505","po16pvz0ydw","leopard","null","<div style=""font-size:60px; color: black;"">+</div>","","","","","","","","","","",""
"","null","image-keyboard-response","25","2.0.0","50512","po16pvz0ydw","leopard","null","stimuli\STATE\USED\Slockbox1.jpg","","","","","Memory","false","null","","","",""
"","null","html-keyboard-response","26","2.0.0","51020","po16pvz0ydw","leopard","null","<div style=""font-size:60px; color: black;"">+</div>","","","","","","","","","","",""
"","null","image-keyboard-response","27","2.0.0","53027","po16pvz0ydw","leopard","null","stimuli\EXEMPLAR\USED\Ehanger1.jpg","","","","","Memory","false","null","","","",""
"","null","html-keyboard-response","28","2.0.0","53535","po16pvz0ydw","leopard","null","<div style=""font-size:60px; color: black;"">+</div>","","","","","","","","","","",""
"","null","image-keyboard-response","29","2.0.0","55544","po16pvz0ydw","leopard","null","stimuli\STATE\USED\Sboxwhite1.jpg","","","","","Memory","false","null","","","",""
"","null","html-keyboard-response","30","2.0.0","56057","po16pvz0ydw","leopard","null","<div style=""font-size:60px; color: black;"">+</div>","","","","","","","","","","",""
"","null","image-keyboard-response","31","2.0.0","58060","po16pvz0ydw","leopard","null","stimuli\EXEMPLAR\USED\Etoykeys2.JPG","","","","","Memory","false","null","","","",""
"","null","html-keyboard-response","32","2.0.0","58567","po16pvz0ydw","leopard","null","<div style=""font-size:60px; color: black;"">+</div>","","","","","","","","","","",""
"","573","image-keyboard-response","33","2.0.0","60578","po16pvz0ydw","leopard"," ","stimuli\STATE\USED\Slockbox1.jpg","","","","","Memory","true","true","","","",""
"","null","html-keyboard-response","34","2.0.0","61088","po16pvz0ydw","leopard","null","<div style=""font-size:60px; color: green;"">+</div>","","","","","","","","","","",""
"","null","image-keyboard-response","35","2.0.0","63095","po16pvz0ydw","leopard","null","stimuli\STATE\USED\Sapplesgreenbasket2.jpg","","","","","Memory","false","null","","","",""
"","null","html-keyboard-response","36","2.0.0","63605","po16pvz0ydw","leopard","null","<div style=""font-size:60px; color: black;"">+</div>","","","","","","","","","","",""
"","null","image-keyboard-response","37","2.0.0","65606","po16pvz0ydw","leopard","null","stimuli\EXEMPLAR\USED\Emedal1.jpg","","","","","Memory","false","null","","","",""
"","null","html-keyboard-response","38","2.0.0","66115","po16pvz0ydw","leopard","null","<div style=""font-size:60px; color: black;"">+</div>","","","","","","","","","","",""
"","null","image-keyboard-response","39","2.0.0","68130","po16pvz0ydw","leopard","null","stimuli\EXEMPLAR\USED\Eremover2.jpg","","","","","Memory","false","null","","","",""
"","null","html-keyboard-response","40","2.0.0","68636","po16pvz0ydw","leopard","null","<div style=""font-size:60px; color: black;"">+</div>","","","","","","","","","","",""
"","null","image-keyboard-response","41","2.0.0","70651","po16pvz0ydw","leopard","null","stimuli\STATE\USED\Scontainer1.JPG","","","","","Memory","false","null","","","",""
"","null","html-keyboard-response","42","2.0.0","71162","po16pvz0ydw","leopard","null","<div style=""font-size:60px; color: black;"">+</div>","","","","","","","","","","",""
"","null","image-keyboard-response","43","2.0.0","73177","po16pvz0ydw","leopard","null","stimuli\EXEMPLAR\USED\Emitt1.jpg","","","","","Memory","false","null","","","",""
"","null","html-keyboard-response","44","2.0.0","73682","po16pvz0ydw","leopard","null","<div style=""font-size:60px; color: black;"">+</div>","","","","","","","","","","",""
"","null","image-keyboard-response","45","2.0.0","75696","po16pvz0ydw","leopard","null","stimuli\STATE\USED\Sbook1.JPG","","","","","Memory","false","null","","","",""
"","null","html-keyboard-response","46","2.0.0","76203","po16pvz0ydw","leopard","null","<div style=""font-size:60px; color: black;"">+</div>","","","","","","","","","","",""
"","null","image-keyboard-response","47","2.0.0","78209","po16pvz0ydw","leopard","null","stimuli\EXEMPLAR\USED\Enozzle1.jpg","","","","","Memory","false","null","","","",""
"","null","html-keyboard-response","48","2.0.0","78717","po16pvz0ydw","leopard","null","<div style=""font-size:60px; color: black;"">+</div>","","","","","","","","","","",""
"","null","image-keyboard-response","49","2.0.0","80727","po16pvz0ydw","leopard","null","stimuli\STATE\USED\Spie2.JPG","","","","","Memory","false","null","","","",""
"","null","html-keyboard-response","50","2.0.0","81234","po16pvz0ydw","leopard","null","<div style=""font-size:60px; color: black;"">+</div>","","","","","","","","","","",""
"","743","image-keyboard-response","51","2.0.0","83238","po16pvz0ydw","leopard"," ","stimuli\EXEMPLAR\USED\Emitt1.jpg","","","","","Memory","true","true","","","",""
"","null","html-keyboard-response","52","2.0.0","83749","po16pvz0ydw","leopard","null","<div style=""font-size:60px; color: green;"">+</div>","","","","","","","","","","",""
"","null","image-keyboard-response","53","2.0.0","85762","po16pvz0ydw","leopard","null","stimuli\EXEMPLAR\USED\Etoywrench1.jpg","","","","","Memory","false","null","","","",""
"","null","html-keyboard-response","54","2.0.0","86274","po16pvz0ydw","leopard","null","<div style=""font-size:60px; color: black;"">+</div>","","","","","","","","","","",""
"","null","image-keyboard-response","55","2.0.0","88285","po16pvz0ydw","leopard","null","stimuli\EXEMPLAR\USED\Etrowel2.jpg","","","","","Memory","false","null","","","",""
"","null","html-keyboard-response","56","2.0.0","88800","po16pvz0ydw","leopard","null","<div style=""font-size:60px; color: black;"">+</div>","","","","","","","","","","",""
"","null","image-keyboard-response","57","2.0.0","90809","po16pvz0ydw","leopard","null","stimuli\STATE\USED\Schinesefoodbox1.jpg","","","","","Memory","false","null","","","",""
"","null","html-keyboard-response","58","2.0.0","91320","po16pvz0ydw","leopard","null","<div style=""font-size:60px; color: black;"">+</div>","","","","","","","","","","",""
"","null","image-keyboard-response","59","2.0.0","93329","po16pvz0ydw","leopard","null","stimuli\STATE\USED\Sbelt2.jpg","","","","","Memory","false","null","","","",""
"","null","html-keyboard-response","60","2.0.0","93831","po16pvz0ydw","leopard","null","<div style=""font-size:60px; color: black;"">+</div>","","","","","","","","","","",""
"","null","image-keyboard-response","61","2.0.0","95842","po16pvz0ydw","leopard","null","stimuli\EXEMPLAR\USED\Erazor2.jpg","","","","","Memory","false","null","","","",""
"","null","html-keyboard-response","62","2.0.0","96351","po16pvz0ydw","leopard","null","<div style=""font-size:60px; color: black;"">+</div>","","","","","","","","","","",""
"","null","image-keyboard-response","63","2.0.0","98362","po16pvz0ydw","leopard","null","stimuli\EXEMPLAR\USED\Epeppers2.jpg","","","","","Memory","false","null","","","",""
"","null","html-keyboard-response","64","2.0.0","98871","po16pvz0ydw","leopard","null","<div style=""font-size:60px; color: black;"">+</div>","","","","","","","","","","",""
"","null","image-keyboard-response","65","2.0.0","100885","po16pvz0ydw","leopard","null","stimuli\EXEMPLAR\USED\Ehorn2.jpg","","","","","Memory","false","null","","","",""
"","null","html-keyboard-response","66","2.0.0","101396","po16pvz0ydw","leopard","null","<div style=""font-size:60px; color: black;"">+</div>","","","","","","","","","","",""
"","null","image-keyboard-response","67","2.0.0","103402","po16pvz0ydw","leopard","null","stimuli\STATE\USED\Sapple2.jpg","","","","","Memory","false","null","","","",""
"","null","html-keyboard-response","68","2.0.0","103915","po16pvz0ydw","leopard","null","<div style=""font-size:60px; color: black;"">+</div>","","","","","","","","","","",""
"","724","image-keyboard-response","69","2.0.0","105923","po16pvz0ydw","leopard"," ","stimuli\EXEMPLAR\USED\Erazor2.jpg","","","","","Memory","true","true","","","",""
"","null","html-keyboard-response","70","2.0.0","106433","po16pvz0ydw","leopard","null","<div style=""font-size:60px; color: green;"">+</div>","","","","","","","","","","",""
"","null","image-keyboard-response","71","2.0.0","108442","po16pvz0ydw","leopard","null","stimuli\STATE\USED\Sumbrella2.jpg","","","","","Memory","false","null","","","",""
"","null","html-keyboard-response","72","2.0.0","108952","po16pvz0ydw","leopard","null","<div style=""font-size:60px; color: black;"">+</div>","","","","","","","","","","",""
"","null","image-keyboard-response","73","2.0.0","110963","po16pvz0ydw","leopard","null","stimuli\STATE\USED\Slaptop1.JPG","","","","","Memory","false","null","","","",""
"","null","html-keyboard-response","74","2.0.0","111474","po16pvz0ydw","leopard","null","<div style=""font-size:60px; color: black;"">+</div>","","","","","","","","","","",""
"","null","image-keyboard-response","75","2.0.0","113479","po16pvz0ydw","leopard","null","stimuli\STATE\USED\Shandsign1.JPG","","","","","Memory","false","null","","","",""
"","null","html-keyboard-response","76","2.0.0","113990","po16pvz0ydw","leopard","null","<div style=""font-size:60px; color: black;"">+</div>","","","","","","","","","","",""
"","null","image-keyboard-response","77","2.0.0","115993","po16pvz0ydw","leopard","null","stimuli\STATE\USED\Sdoughhands1.jpg","","","","","Memory","false","null","","","",""
"","null","html-keyboard-response","78","2.0.0","116504","po16pvz0ydw","leopard","null","<div style=""font-size:60px; color: black;"">+</div>","","","","","","","","","","",""
"","800","image-keyboard-response","79","2.0.0","118517","po16pvz0ydw","leopard"," ","stimuli\STATE\USED\Sumbrella2.jpg","","","","","Memory","true","true","","","",""
"","null","html-keyboard-response","80","2.0.0","119027","po16pvz0ydw","leopard","null","<div style=""font-size:60px; color: green;"">+</div>","","","","","","","","","","",""
"","null","image-keyboard-response","81","2.0.0","121038","po16pvz0ydw","leopard","null","stimuli\STATE\USED\Smetronome1.jpg","","","","","Memory","false","null","","","",""
"","null","html-keyboard-response","82","2.0.0","121549","po16pvz0ydw","leopard","null","<div style=""font-size:60px; color: black;"">+</div>","","","","","","","","","","",""
"","null","image-keyboard-response","83","2.0.0","123558","po16pvz0ydw","leopard","null","stimuli\STATE\USED\Sclipboard1.jpg","","","","","Memory","false","null","","","",""
"","null","html-keyboard-response","84","2.0.0","124068","po16pvz0ydw","leopard","null","<div style=""font-size:60px; color: black;"">+</div>","","","","","","","","","","",""
"","null","image-keyboard-response","85","2.0.0","126081","po16pvz0ydw","leopard","null","stimuli\EXEMPLAR\USED\Ebonzai2.jpg","","","","","Memory","false","null","","","",""
"","null","html-keyboard-response","86","2.0.0","126593","po16pvz0ydw","leopard","null","<div style=""font-size:60px; color: black;"">+</div>","","","","","","","","","","",""
"","null","image-keyboard-response","87","2.0.0","128598","po16pvz0ydw","leopard","null","stimuli\EXEMPLAR\USED\Eheadphones1.jpg","","","","","Memory","false","null","","","",""
"","null","html-keyboard-response","88","2.0.0","129110","po16pvz0ydw","leopard","null","<div style=""font-size:60px; color: black;"">+</div>","","","","","","","","","","",""
"","null","image-keyboard-response","89","2.0.0","131120","po16pvz0ydw","leopard","null","stimuli\EXEMPLAR\USED\Efolder2.jpg","","","","","Memory","false","null","","","",""
"","null","html-keyboard-response","90","2.0.0","131629","po16pvz0ydw","leopard","null","<div style=""font-size:60px; color: black;"">+</div>","","","","","","","","","","",""
"","null","image-keyboard-response","91","2.0.0","133634","po16pvz0ydw","leopard","null","stimuli\STATE\USED\Spicnicbasket2.jpg","","","","","Memory","false","null","","","",""
"","null","html-keyboard-response","92","2.0.0","134144","po16pvz0ydw","leopard","null","<div style=""font-size:60px; color: black;"">+</div>","","","","","","","","","","",""
"","null","image-keyboard-response","93","2.0.0","136151","po16pvz0ydw","leopard","null","stimuli\STATE\USED\Spatiotable1.jpg","","","","","Memory","false","null","","","",""
"","null","html-keyboard-response","94","2.0.0","136660","po16pvz0ydw","leopard","null","<div style=""font-size:60px; color: black;"">+</div>","","","","","","","","","","",""
"","null","image-keyboard-response","95","2.0.0","138670","po16pvz0ydw","leopard","null","stimuli\EXEMPLAR\USED\Echocolatebar2.jpg","","","","","Memory","false","null","","","",""
"","null","html-keyboard-response","96","2.0.0","139175","po16pvz0ydw","leopard","null","<div style=""font-size:60px; color: black;"">+</div>","","","","","","","","","","",""
"","null","image-keyboard-response","97","2.0.0","141181","po16pvz0ydw","leopard","null","stimuli\EXEMPLAR\USED\Elog1.jpg","","","","","Memory","false","null","","","",""
"","null","html-keyboard-response","98","2.0.0","141692","po16pvz0ydw","leopard","null","<div style=""font-size:60px; color: black;"">+</div>","","","","","","","","","","",""
"","null","image-keyboard-response","99","2.0.0","143701","po16pvz0ydw","leopard","null","stimuli\EXEMPLAR\USED\Epliers1.jpg","","","","","Memory","false","null","","","",""
"","null","html-keyboard-response","100","2.0.0","144213","po16pvz0ydw","leopard","null","<div style=""font-size:60px; color: black;"">+</div>","","","","","","","","","","",""
"","null","image-keyboard-response","101","2.0.0","146226","po16pvz0ydw","leopard","null","stimuli\STATE\USED\Snapkins1.jpg","","","","","Memory","false","null","","","",""
"","null","html-keyboard-response","102","2.0.0","146735","po16pvz0ydw","leopard","null","<div style=""font-size:60px; color: black;"">+</div>","","","","","","","","","","",""
"","null","image-keyboard-response","103","2.0.0","148738","po16pvz0ydw","leopard","null","stimuli\STATE\USED\Sdie2.jpg","","","","","Memory","false","null","","","",""
"","null","html-keyboard-response","104","2.0.0","149248","po16pvz0ydw","leopard","null","<div style=""font-size:60px; color: black;"">+</div>","","","","","","","","","","",""
"","null","image-keyboard-response","105","2.0.0","151263","po16pvz0ydw","leopard","null","stimuli\STATE\USED\Sflask1.jpg","","","","","Memory","false","null","","","",""
"","null","html-keyboard-response","106","2.0.0","151772","po16pvz0ydw","leopard","null","<div style=""font-size:60px; color: black;"">+</div>","","","","","","","","","","",""
"","1555","html-button-response","107","2.0.0","153328","po16pvz0ydw","leopard","0","Are you still there?","","","","","Attention Check","","","","","",""
"","null","image-keyboard-response","108","2.0.0","155338","po16pvz0ydw","leopard","null","stimuli\STATE\USED\Scateringtray1.jpg","","","","","Memory","false","null","","","",""
"","null","html-keyboard-response","109","2.0.0","155850","po16pvz0ydw","leopard","null","<div style=""font-size:60px; color: black;"">+</div>","","","","","","","","","","",""
"","null","image-keyboard-response","110","2.0.0","157863","po16pvz0ydw","leopard","null","stimuli\STATE\USED\Sseatbelt1.jpg","","","","","Memory","false","null","","","",""
"","null","html-keyboard-response","111","2.0.0","158371","po16pvz0ydw","leopard","null","<div style=""font-size:60px; color: black;"">+</div>","","","","","","","","","","",""
"","null","image-keyboard-response","112","2.0.0","160382","po16pvz0ydw","leopard","null","stimuli\STATE\USED\Sstoplight1.jpg","","","","","Memory","false","null","","","",""
"","null","html-keyboard-response","113","2.0.0","160893","po16pvz0ydw","leopard","null","<div style=""font-size:60px; color: black;"">+</div>","","","","","","","","","","",""
"","null","image-keyboard-response","114","2.0.0","162905","po16pvz0ydw","leopard","null","stimuli\EXEMPLAR\USED\Estarfish2.jpg","","","","","Memory","false","null","","","",""
"","null","html-keyboard-response","115","2.0.0","163416","po16pvz0ydw","leopard","null","<div style=""font-size:60px; color: black;"">+</div>","","","","","","","","","","",""
"","562","image-keyboard-response","116","2.0.0","165424","po16pvz0ydw","leopard"," ","stimuli\STATE\USED\Scateringtray1.jpg","","","","","Memory","true","true","","","",""
"","null","html-keyboard-response","117","2.0.0","165935","po16pvz0ydw","leopard","null","<div style=""font-size:60px; color: green;"">+</div>","","","","","","","","","","",""
"","null","image-keyboard-response","118","2.0.0","167944","po16pvz0ydw","leopard","null","stimuli\STATE\USED\Sdishwasher1.jpg","","","","","Memory","false","null","","","",""
"","null","html-keyboard-response","119","2.0.0","168452","po16pvz0ydw","leopard","null","<div style=""font-size:60px; color: black;"">+</div>","","","","","","","","","","",""
"","null","image-keyboard-response","120","2.0.0","170461","po16pvz0ydw","leopard","null","stimuli\STATE\USED\Srainbowslice1.jpg","","","","","Memory","false","null","","","",""
"","null","html-keyboard-response","121","2.0.0","170972","po16pvz0ydw","leopard","null","<div style=""font-size:60px; color: black;"">+</div>","","","","","","","","","","",""
"","null","image-keyboard-response","122","2.0.0","172980","po16pvz0ydw","leopard","null","stimuli\EXEMPLAR\USED\Esantahat1.jpg","","","","","Memory","false","null","","","",""
"","null","html-keyboard-response","123","2.0.0","173487","po16pvz0ydw","leopard","null","<div style=""font-size:60px; color: black;"">+</div>","","","","","","","","","","",""
"","null","image-keyboard-response","124","2.0.0","175501","po16pvz0ydw","leopard","null","stimuli\STATE\USED\Spiggybank2.jpg","","","","","Memory","false","null","","","",""
"","null","html-keyboard-response","125","2.0.0","176012","po16pvz0ydw","leopard","null","<div style=""font-size:60px; color: black;"">+</div>","","","","","","","","","","",""
"","724","image-keyboard-response","126","2.0.0","178016","po16pvz0ydw","leopard"," ","stimuli\STATE\USED\Sdishwasher1.jpg","","","","","Memory","true","true","","","",""
"","null","html-keyboard-response","127","2.0.0","178522","po16pvz0ydw","leopard","null","<div style=""font-size:60px; color: green;"">+</div>","","","","","","","","","","",""
"","null","image-keyboard-response","128","2.0.0","180531","po16pvz0ydw","leopard","null","stimuli\EXEMPLAR\USED\Egame2.jpg","","","","","Memory","false","null","","","",""
"","null","html-keyboard-response","129","2.0.0","181043","po16pvz0ydw","leopard","null","<div style=""font-size:60px; color: black;"">+</div>","","","","","","","","","","",""
"","null","image-keyboard-response","130","2.0.0","183051","po16pvz0ydw","leopard","null","stimuli\STATE\USED\Shandmirror1.jpg","","","","","Memory","false","null","","","",""
"","null","html-keyboard-response","131","2.0.0","183561","po16pvz0ydw","leopard","null","<div style=""font-size:60px; color: black;"">+</div>","","","","","","","","","","",""
"","null","image-keyboard-response","132","2.0.0","185575","po16pvz0ydw","leopard","null","stimuli\EXEMPLAR\USED\Eglobe2.jpg","","","","","Memory","false","null","","","",""
"","null","html-keyboard-response","133","2.0.0","186085","po16pvz0ydw","leopard","null","<div style=""font-size:60px; color: black;"">+</div>","","","","","","","","","","",""
"","null","image-keyboard-response","134","2.0.0","188092","po16pvz0ydw","leopard","null","stimuli\STATE\USED\Shandshake2.JPG","","","","","Memory","false","null","","","",""
"","null","html-keyboard-response","135","2.0.0","188607","po16pvz0ydw","leopard","null","<div style=""font-size:60px; color: black;"">+</div>","","","","","","","","","","",""
"","null","image-keyboard-response","136","2.0.0","190618","po16pvz0ydw","leopard","null","stimuli\STATE\USED\Ssweater2.jpg","","","","","Memory","false","null","","","",""
"","null","html-keyboard-response","137","2.0.0","191121","po16pvz0ydw","leopard","null","<div style=""font-size:60px; color: black;"">+</div>","","","","","","","","","","",""
"","null","image-keyboard-response","138","2.0.0","193130","po16pvz0ydw","leopard","null","stimuli\EXEMPLAR\USED\Emoney2.jpg","","","","","Memory","false","null","","","",""
"","null","html-keyboard-response","139","2.0.0","193641","po16pvz0ydw","leopard","null","<div style=""font-size:60px; color: black;"">+</div>","","","","","","","","","","",""
"","961","image-keyboard-response","140","2.0.0","195652","po16pvz0ydw","leopard"," ","stimuli\EXEMPLAR\USED\Eglobe2.jpg","","","","","Memory","true","true","","","",""
"","null","html-keyboard-response","141","2.0.0","196161","po16pvz0ydw","leopard","null","<div style=""font-size:60px; color: green;"">+</div>","","","","","","","","","","",""
"","null","image-keyboard-response","142","2.0.0","198172","po16pvz0ydw","leopard","null","stimuli\EXEMPLAR\USED\Eicecream2.jpg","","","","","Memory","false","null","","","",""
"","null","html-keyboard-response","143","2.0.0","198682","po16pvz0ydw","leopard","null","<div style=""font-size:60px; color: black;"">+</div>","","","","","","","","","","",""
"","null","image-keyboard-response","144","2.0.0","200691","po16pvz0ydw","leopard","null","stimuli\EXEMPLAR\USED\Etoyhand1.jpg","","","","","Memory","false","null","","","",""
"","null","html-keyboard-response","145","2.0.0","201194","po16pvz0ydw","leopard","null","<div style=""font-size:60px; color: black;"">+</div>","","","","","","","","","","",""
"","null","image-keyboard-response","146","2.0.0","203203","po16pvz0ydw","leopard","null","stimuli\EXEMPLAR\USED\Etoyplane2.jpg","","","","","Memory","false","null","","","",""
"","null","html-keyboard-response","147","2.0.0","203712","po16pvz0ydw","leopard","null","<div style=""font-size:60px; color: black;"">+</div>","","","","","","","","","","",""
"","null","image-keyboard-response","148","2.0.0","205725","po16pvz0ydw","leopard","null","stimuli\EXEMPLAR\USED\Eteapot2.JPG","","","","","Memory","false","null","","","",""
"","null","html-keyboard-response","149","2.0.0","206234","po16pvz0ydw","leopard","null","<div style=""font-size:60px; color: black;"">+</div>","","","","","","","","","","",""
"","null","image-keyboard-response","150","2.0.0","208241","po16pvz0ydw","leopard","null","stimuli\EXEMPLAR\USED\Emuffin1.jpg","","","","","Memory","false","null","","","",""
"","null","html-keyboard-response","151","2.0.0","208752","po16pvz0ydw","leopard","null","<div style=""font-size:60px; color: black;"">+</div>","","","","","","","","","","",""
"","null","image-keyboard-response","152","2.0.0","210766","po16pvz0ydw","leopard","null","stimuli\EXEMPLAR\USED\Epiano1.jpg","","","","","Memory","false","null","","","",""
"","null","html-keyboard-response","153","2.0.0","211276","po16pvz0ydw","leopard","null","<div style=""font-size:60px; color: black;"">+</div>","","","","","","","","","","",""
"","null","image-keyboard-response","154","2.0.0","213285","po16pvz0ydw","leopard","null","stimuli\STATE\USED\Sscales1.jpg","","","","","Memory","false","null","","","",""
"","null","html-keyboard-response","155","2.0.0","213795","po16pvz0ydw","leopard","null","<div style=""font-size:60px; color: black;"">+</div>","","","","","","","","","","",""
"","null","image-keyboard-response","156","2.0.0","215805","po16pvz0ydw","leopard","null","stimuli\EXEMPLAR\USED\Espraybottle1.jpg","","","","","Memory","false","null","","","",""
"","null","html-keyboard-response","157","2.0.0","216316","po16pvz0ydw","leopard","null","<div style=""font-size:60px; color: black;"">+</div>","","","","","","","","","","",""
"","null","image-keyboard-response","158","2.0.0","218328","po16pvz0ydw","leopard","null","stimuli\EXEMPLAR\USED\Ekayak1.jpg","","","","","Memory","false","null","","","",""
"","null","html-keyboard-response","159","2.0.0","218839","po16pvz0ydw","leopard","null","<div style=""font-size:60px; color: black;"">+</div>","","","","","","","","","","",""
"","null","image-keyboard-response","160","2.0.0","220841","po16pvz0ydw","leopard","null","stimuli\STATE\USED\Sbrie1.JPG","","","","","Memory","false","null","","","",""
"","null","html-keyboard-response","161","2.0.0","221351","po16pvz0ydw","leopard","null","<div style=""font-size:60px; color: black;"">+</div>","","","","","","","","","","",""
"","null","image-keyboard-response","162","2.0.0","223358","po16pvz0ydw","leopard","null","stimuli\STATE\USED\Sbriefcasemetal1.JPG","","","","","Memory","false","null","","","",""
"","null","html-keyboard-response","163","2.0.0","223873","po16pvz0ydw","leopard","null","<div style=""font-size:60px; color: black;"">+</div>","","","","","","","","","","",""
"","null","image-keyboard-response","164","2.0.0","225880","po16pvz0ydw","leopard","null","stimuli\EXEMPLAR\USED\Ebunny2.jpg","","","","","Memory","false","null","","","",""
"","null","html-keyboard-response","165","2.0.0","226388","po16pvz0ydw","leopard","null","<div style=""font-size:60px; color: black;"">+</div>","","","","","","","","","","",""
"","null","image-keyboard-response","166","2.0.0","228396","po16pvz0ydw","leopard","null","stimuli\STATE\USED\Stypewriter2.jpg","","","","","Memory","false","null","","","",""
"","null","html-keyboard-response","167","2.0.0","228905","po16pvz0ydw","leopard","null","<div style=""font-size:60px; color: black;"">+</div>","","","","","","","","","","",""
"","486","image-keyboard-response","168","2.0.0","230914","po16pvz0ydw","leopard"," ","stimuli\STATE\USED\Sbrie1.JPG","","","","","Memory","true","true","","","",""
"","null","html-keyboard-response","169","2.0.0","231423","po16pvz0ydw","leopard","null","<div style=""font-size:60px; color: green;"">+</div>","","","","","","","","","","",""
"","null","image-keyboard-response","170","2.0.0","233429","po16pvz0ydw","leopard","null","stimuli\EXEMPLAR\USED\Ebread2.jpg","","","","","Memory","false","null","","","",""
"","null","html-keyboard-response","171","2.0.0","233938","po16pvz0ydw","leopard","null","<div style=""font-size:60px; color: black;"">+</div>","","","","","","","","","","",""
"","null","image-keyboard-response","172","2.0.0","235944","po16pvz0ydw","leopard","null","stimuli\STATE\USED\Spotpan1.JPG","","","","","Memory","false","null","","","",""
"","null","html-keyboard-response","173","2.0.0","236456","po16pvz0ydw","leopard","null","<div style=""font-size:60px; color: black;"">+</div>","","","","","","","","","","",""
"","null","image-keyboard-response","174","2.0.0","238462","po16pvz0ydw","leopard","null","stimuli\STATE\USED\Spumpkinpie2.jpg","","","","","Memory","false","null","","","",""
"","null","html-keyboard-response","175","2.0.0","238970","po16pvz0ydw","leopard","null","<div style=""font-size:60px; color: black;"">+</div>","","","","","","","","","","",""
"","null","image-keyboard-response","176","2.0.0","240980","po16pvz0ydw","leopard","null","stimuli\STATE\USED\Saccordion1.jpg","","","","","Memory","false","null","","","",""
"","null","html-keyboard-response","177","2.0.0","241490","po16pvz0ydw","leopard","null","<div style=""font-size:60px; color: black;"">+</div>","","","","","","","","","","",""
"","null","image-keyboard-response","178","2.0.0","243499","po16pvz0ydw","leopard","null","stimuli\STATE\USED\Sbarnmailbox1.jpg","","","","","Memory","false","null","","","",""
"","null","html-keyboard-response","179","2.0.0","244004","po16pvz0ydw","leopard","null","<div style=""font-size:60px; color: black;"">+</div>","","","","","","","","","","",""
"","null","image-keyboard-response","180","2.0.0","246012","po16pvz0ydw","leopard","null","stimuli\EXEMPLAR\USED\Echeeses2.jpg","","","","","Memory","false","null","","","",""
"","null","html-keyboard-response","181","2.0.0","246523","po16pvz0ydw","leopard","null","<div style=""font-size:60px; color: black;"">+</div>","","","","","","","","","","",""
"","null","image-keyboard-response","182","2.0.0","248532","po16pvz0ydw","leopard","null","stimuli\EXEMPLAR\USED\Edinosaur1.jpg","","","","","Memory","false","null","","","",""
"","null","html-keyboard-response","183","2.0.0","249041","po16pvz0ydw","leopard","null","<div style=""font-size:60px; color: black;"">+</div>","","","","","","","","","","",""
"","null","image-keyboard-response","184","2.0.0","251043","po16pvz0ydw","leopard","null","stimuli\STATE\USED\Sdresser2.jpg","","","","","Memory","false","null","","","",""
"","null","html-keyboard-response","185","2.0.0","251554","po16pvz0ydw","leopard","null","<div style=""font-size:60px; color: black;"">+</div>","","","","","","","","","","",""
"","594","image-keyboard-response","186","2.0.0","253556","po16pvz0ydw","leopard"," ","stimuli\STATE\USED\Sbarnmailbox1.jpg","","","","","Memory","true","true","","","",""
"","null","html-keyboard-response","187","2.0.0","254068","po16pvz0ydw","leopard","null","<div style=""font-size:60px; color: green;"">+</div>","","","","","","","","","","",""
"","null","image-keyboard-response","188","2.0.0","256079","po16pvz0ydw","leopard","null","stimuli\STATE\USED\Shairbrush1.jpg","","","","","Memory","false","null","","","",""
"","null","html-keyboard-response","189","2.0.0","256588","po16pvz0ydw","leopard","null","<div style=""font-size:60px; color: black;"">+</div>","","","","","","","","","","",""
"","null","image-keyboard-response","190","2.0.0","258596","po16pvz0ydw","leopard","null","stimuli\EXEMPLAR\USED\Econe2.jpg","","","","","Memory","false","null","","","",""
"","null","html-keyboard-response","191","2.0.0","259109","po16pvz0ydw","leopard","null","<div style=""font-size:60px; color: black;"">+</div>","","","","","","","","","","",""
"","null","image-keyboard-response","192","2.0.0","261119","po16pvz0ydw","leopard","null","stimuli\EXEMPLAR\USED\Epotatochips1.jpg","","","","","Memory","false","null","","","",""
"","null","html-keyboard-response","193","2.0.0","261630","po16pvz0ydw","leopard","null","<div style=""font-size:60px; color: black;"">+</div>","","","","","","","","","","",""
"","null","image-keyboard-response","194","2.0.0","263633","po16pvz0ydw","leopard","null","stimuli\EXEMPLAR\USED\Ebracelet1.jpg","","","","","Memory","false","null","","","",""
"","null","html-keyboard-response","195","2.0.0","264141","po16pvz0ydw","leopard","null","<div style=""font-size:60px; color: black;"">+</div>","","","","","","","","","","",""
"","996","image-keyboard-response","196","2.0.0","266151","po16pvz0ydw","leopard"," ","stimuli\STATE\USED\Shairbrush1.jpg","","","","","Memory","true","true","","","",""
"","null","html-keyboard-response","197","2.0.0","266661","po16pvz0ydw","leopard","null","<div style=""font-size:60px; color: green;"">+</div>","","","","","","","","","","",""
"","null","image-keyboard-response","198","2.0.0","268667","po16pvz0ydw","leopard","null","stimuli\STATE\USED\Stiger2.jpg","","","","","Memory","false","null","","","",""
"","null","html-keyboard-response","199","2.0.0","269176","po16pvz0ydw","leopard","null","<div style=""font-size:60px; color: black;"">+</div>","","","","","","","","","","",""
"","null","image-keyboard-response","200","2.0.0","271192","po16pvz0ydw","leopard","null","stimuli\EXEMPLAR\USED\Ewheelchair1.jpg","","","","","Memory","false","null","","","",""
"","null","html-keyboard-response","201","2.0.0","271700","po16pvz0ydw","leopard","null","<div style=""font-size:60px; color: black;"">+</div>","","","","","","","","","","",""
"","null","image-keyboard-response","202","2.0.0","273710","po16pvz0ydw","leopard","null","stimuli\EXEMPLAR\USED\Eswimsuit2.jpg","","","","","Memory","false","null","","","",""
"","null","html-keyboard-response","203","2.0.0","274219","po16pvz0ydw","leopard","null","<div style=""font-size:60px; color: black;"">+</div>","","","","","","","","","","",""
"","null","image-keyboard-response","204","2.0.0","276226","po16pvz0ydw","leopard","null","stimuli\STATE\USED\Sbabytoy2.JPG","","","","","Memory","false","null","","","",""
"","null","html-keyboard-response","205","2.0.0","276730","po16pvz0ydw","leopard","null","<div style=""font-size:60px; color: black;"">+</div>","","","","","","","","","","",""
"","null","image-keyboard-response","206","2.0.0","278735","po16pvz0ydw","leopard","null","stimuli\STATE\USED\Speppers2.jpg","","","","","Memory","false","null","","","",""
"","null","html-keyboard-response","207","2.0.0","279243","po16pvz0ydw","leopard","null","<div style=""font-size:60px; color: black;"">+</div>","","","","","","","","","","",""
"","732","image-keyboard-response","208","2.0.0","281255","po16pvz0ydw","leopard"," ","stimuli\EXEMPLAR\USED\Ewheelchair1.jpg","","","","","Memory","true","true","","","",""
"","null","html-keyboard-response","209","2.0.0","281764","po16pvz0ydw","leopard","null","<div style=""font-size:60px; color: green;"">+</div>","","","","","","","","","","",""
"","1457","html-button-response","210","2.0.0","283221","po16pvz0ydw","leopard","0","Are you still there?","","","","","Attention Check","","","","","",""
"","null","image-keyboard-response","211","2.0.0","285232","po16pvz0ydw","leopard","null","stimuli\EXEMPLAR\USED\Eremote2.jpg","","","","","Memory","false","null","","","",""
"","null","html-keyboard-response","212","2.0.0","285743","po16pvz0ydw","leopard","null","<div style=""font-size:60px; color: black;"">+</div>","","","","","","","","","","",""
"","null","image-keyboard-response","213","2.0.0","287752","po16pvz0ydw","leopard","null","stimuli\EXEMPLAR\USED\Ehotairballoon1.jpg","","","","","Memory","false","null","","","",""
"","null","html-keyboard-response","214","2.0.0","288261","po16pvz0ydw","leopard","null","<div style=""font-size:60px; color: black;"">+</div>","","","","","","","","","","",""
"","null","image-keyboard-response","215","2.0.0","290271","po16pvz0ydw","leopard","null","stimuli\EXEMPLAR\USED\Eturtle1.jpg","","","","","Memory","false","null","","","",""
"","null","html-keyboard-response","216","2.0.0","290782","po16pvz0ydw","leopard","null","<div style=""font-size:60px; color: black;"">+</div>","","","","","","","","","","",""
"","null","image-keyboard-response","217","2.0.0","292796","po16pvz0ydw","leopard","null","stimuli\STATE\USED\Sdonut1.jpg","","","","","Memory","false","null","","","",""
"","null","html-keyboard-response","218","2.0.0","293308","po16pvz0ydw","leopard","null","<div style=""font-size:60px; color: black;"">+</div>","","","","","","","","","","",""
"","766","image-keyboard-response","219","2.0.0","295315","po16pvz0ydw","leopard"," ","stimuli\EXEMPLAR\USED\Eremote2.jpg","","","","","Memory","true","true","","","",""
"","null","html-keyboard-response","220","2.0.0","295822","po16pvz0ydw","leopard","null","<div style=""font-size:60px; color: green;"">+</div>","","","","","","","","","","",""
"","null","image-keyboard-response","221","2.0.0","297831","po16pvz0ydw","leopard","null","stimuli\STATE\USED\Sscissors1.JPG","","","","","Memory","false","null","","","",""
"","null","html-keyboard-response","222","2.0.0","298343","po16pvz0ydw","leopard","null","<div style=""font-size:60px; color: black;"">+</div>","","","","","","","","","","",""
"","null","image-keyboard-response","223","2.0.0","300351","po16pvz0ydw","leopard","null","stimuli\STATE\USED\Sredcabbage1.jpg","","","","","Memory","false","null","","","",""
"","null","html-keyboard-response","224","2.0.0","300862","po16pvz0ydw","leopard","null","<div style=""font-size:60px; color: black;"">+</div>","","","","","","","","","","",""
"","null","image-keyboard-response","225","2.0.0","302873","po16pvz0ydw","leopard","null","stimuli\EXEMPLAR\USED\Eballoon1.jpg","","","","","Memory","false","null","","","",""
"","null","html-keyboard-response","226","2.0.0","303384","po16pvz0ydw","leopard","null","<div style=""font-size:60px; color: black;"">+</div>","","","","","","","","","","",""
"","null","image-keyboard-response","227","2.0.0","305395","po16pvz0ydw","leopard","null","stimuli\STATE\USED\Saccordionsmall1.JPG","","","","","Memory","false","null","","","",""
"","null","html-keyboard-response","228","2.0.0","305904","po16pvz0ydw","leopard","null","<div style=""font-size:60px; color: black;"">+</div>","","","","","","","","","","",""
"","null","image-keyboard-response","229","2.0.0","307909","po16pvz0ydw","leopard","null","stimuli\STATE\USED\Scoffeemaker1.JPG","","","","","Memory","false","null","","","",""
"","null","html-keyboard-response","230","2.0.0","308420","po16pvz0ydw","leopard","null","<div style=""font-size:60px; color: black;"">+</div>","","","","","","","","","","",""
"","689","image-keyboard-response","231","2.0.0","310429","po16pvz0ydw","leopard"," ","stimuli\STATE\USED\Sredcabbage1.jpg","","","","","Memory","true","true","","","",""
"","null","html-keyboard-response","232","2.0.0","310936","po16pvz0ydw","leopard","null","<div style=""font-size:60px; color: green;"">+</div>","","","","","","","","","","",""
"","null","image-keyboard-response","233","2.0.0","312945","po16pvz0ydw","leopard","null","stimuli\STATE\USED\Siron1.jpg","","","","","Memory","false","null","","","",""
"","null","html-keyboard-response","234","2.0.0","313453","po16pvz0ydw","leopard","null","<div style=""font-size:60px; color: black;"">+</div>","","","","","","","","","","",""
"","null","image-keyboard-response","235","2.0.0","315455","po16pvz0ydw","leopard","null","stimuli\STATE\USED\Spolarbear2.jpg","","","","","Memory","false","null","","","",""
"","null","html-keyboard-response","236","2.0.0","315964","po16pvz0ydw","leopard","null","<div style=""font-size:60px; color: black;"">+</div>","","","","","","","","","","",""
"","null","image-keyboard-response","237","2.0.0","317979","po16pvz0ydw","leopard","null","stimuli\EXEMPLAR\USED\Etrain1.jpg","","","","","Memory","false","null","","","",""
"","null","html-keyboard-response","238","2.0.0","318488","po16pvz0ydw","leopard","null","<div style=""font-size:60px; color: black;"">+</div>","","","","","","","","","","",""
"","null","image-keyboard-response","239","2.0.0","320501","po16pvz0ydw","leopard","null","stimuli\STATE\USED\Sscanner1.JPG","","","","","Memory","false","null","","","",""
"","null","html-keyboard-response","240","2.0.0","321011","po16pvz0ydw","leopard","null","<div style=""font-size:60px; color: black;"">+</div>","","","","","","","","","","",""
"","820","image-keyboard-response","241","2.0.0","323019","po16pvz0ydw","leopard"," ","stimuli\STATE\USED\Siron1.jpg","","","","","Memory","true","true","","","",""
"","null","html-keyboard-response","242","2.0.0","323528","po16pvz0ydw","leopard","null","<div style=""font-size:60px; color: green;"">+</div>","","","","","","","","","","",""
"","null","image-keyboard-response","243","2.0.0","325531","po16pvz0ydw","leopard","null","stimuli\EXEMPLAR\USED\Earch2.jpg","","","","","Memory","false","null","","","",""
"","null","html-keyboard-response","244","2.0.0","326044","po16pvz0ydw","leopard","null","<div style=""font-size:60px; color: black;"">+</div>","","","","","","","","","","",""
"","null","image-keyboard-response","245","2.0.0","328057","po16pvz0ydw","leopard","null","stimuli\STATE\USED\Smedicaltape2.jpg","","","","","Memory","false","null","","","",""
"","null","html-keyboard-response","246","2.0.0","328567","po16pvz0ydw","leopard","null","<div style=""font-size:60px; color: black;"">+</div>","","","","","","","","","","",""
"","null","image-keyboard-response","247","2.0.0","330574","po16pvz0ydw","leopard","null","stimuli\STATE\USED\Sbrushes2.jpg","","","","","Memory","false","null","","","",""
"","null","html-keyboard-response","248","2.0.0","331089","po16pvz0ydw","leopard","null","<div style=""font-size:60px; color: black;"">+</div>","","","","","","","","","","",""
"","null","image-keyboard-response","249","2.0.0","333094","po16pvz0ydw","leopard","null","stimuli\EXEMPLAR\USED\Ecake1.jpg","","","","","Memory","false","null","","","",""
"","null","html-keyboard-response","250","2.0.0","333604","po16pvz0ydw","leopard","null","<div style=""font-size:60px; color: black;"">+</div>","","","","","","","","","","",""
"","null","image-keyboard-response","251","2.0.0","335613","po16pvz0ydw","leopard","null","stimuli\STATE\USED\Sphone2.JPG","","","","","Memory","false","null","","","",""
"","null","html-keyboard-response","252","2.0.0","336122","po16pvz0ydw","leopard","null","<div style=""font-size:60px; color: black;"">+</div>","","","","","","","","","","",""
"","null","image-keyboard-response","253","2.0.0","338138","po16pvz0ydw","leopard","null","stimuli\EXEMPLAR\USED\Escroll1.jpg","","","","","Memory","false","null","","","",""
"","null","html-keyboard-response","254","2.0.0","338648","po16pvz0ydw","leopard","null","<div style=""font-size:60px; color: black;"">+</div>","","","","","","","","","","",""
"","null","image-keyboard-response","255","2.0.0","340656","po16pvz0ydw","leopard","null","stimuli\STATE\USED\Sgiftbag2.jpg","","","","","Memory","false","null","","","",""
"","null","html-keyboard-response","256","2.0.0","341169","po16pvz0ydw","leopard","null","<div style=""font-size:60px; color: black;"">+</div>","","","","","","","","","","",""
"","null","image-keyboard-response","257","2.0.0","343172","po16pvz0ydw","leopard","null","stimuli\STATE\USED\Sskull1.jpg","","","","","Memory","false","null","","","",""
"","null","html-keyboard-response","258","2.0.0","343680","po16pvz0ydw","leopard","null","<div style=""font-size:60px; color: black;"">+</div>","","","","","","","","","","",""
"","null","image-keyboard-response","259","2.0.0","345686","po16pvz0ydw","leopard","null","stimuli\EXEMPLAR\USED\Ebinoculars1.jpg","","","","","Memory","false","null","","","",""
"","null","html-keyboard-response","260","2.0.0","346192","po16pvz0ydw","leopard","null","<div style=""font-size:60px; color: black;"">+</div>","","","","","","","","","","",""
"","null","image-keyboard-response","261","2.0.0","348194","po16pvz0ydw","leopard","null","stimuli\STATE\USED\Sschoolbag1.JPG","","","","","Memory","false","null","","","",""
"","null","html-keyboard-response","262","2.0.0","348703","po16pvz0ydw","leopard","null","<div style=""font-size:60px; color: black;"">+</div>","","","","","","","","","","",""
"","null","image-keyboard-response","263","2.0.0","350714","po16pvz0ydw","leopard","null","stimuli\STATE\USED\Sdishes1.JPG","","","","","Memory","false","null","","","",""
"","null","html-keyboard-response","264","2.0.0","351219","po16pvz0ydw","leopard","null","<div style=""font-size:60px; color: black;"">+</div>","","","","","","","","","","",""
"","573","image-keyboard-response","265","2.0.0","353229","po16pvz0ydw","leopard"," ","stimuli\STATE\USED\Sskull1.jpg","","","","","Memory","true","true","","","",""
"","null","html-keyboard-response","266","2.0.0","353739","po16pvz0ydw","leopard","null","<div style=""font-size:60px; color: green;"">+</div>","","","","","","","","","","",""
"","null","image-keyboard-response","267","2.0.0","355747","po16pvz0ydw","leopard","null","stimuli\EXEMPLAR\USED\Erabbit2.jpg","","","","","Memory","false","null","","","",""
"","null","html-keyboard-response","268","2.0.0","356257","po16pvz0ydw","leopard","null","<div style=""font-size:60px; color: black;"">+</div>","","","","","","","","","","",""
"","null","image-keyboard-response","269","2.0.0","358265","po16pvz0ydw","leopard","null","stimuli\EXEMPLAR\USED\Eframe1.jpg","","","","","Memory","false","null","","","",""
"","null","html-keyboard-response","270","2.0.0","358774","po16pvz0ydw","leopard","null","<div style=""font-size:60px; color: black;"">+</div>","","","","","","","","","","",""
"","null","image-keyboard-response","271","2.0.0","360791","po16pvz0ydw","leopard","null","stimuli\STATE\USED\Seggplant2.jpg","","","","","Memory","false","null","","","",""
"","null","html-keyboard-response","272","2.0.0","361300","po16pvz0ydw","leopard","null","<div style=""font-size:60px; color: black;"">+</div>","","","","","","","","","","",""
"","null","image-keyboard-response","273","2.0.0","363309","po16pvz0ydw","leopard","null","stimuli\EXEMPLAR\USED\Etongs1.jpg","","","","","Memory","false","null","","","",""
"","null","html-keyboard-response","274","2.0.0","363820","po16pvz0ydw","leopard","null","<div style=""font-size:60px; color: black;"">+</div>","","","","","","","","","","",""
"","null","image-keyboard-response","275","2.0.0","365833","po16pvz0ydw","leopard","null","stimuli\EXEMPLAR\USED\Ehoe1.jpg","","","","","Memory","false","null","","","",""
"","null","html-keyboard-response","276","2.0.0","366342","po16pvz0ydw","leopard","null","<div style=""font-size:60px; color: black;"">+</div>","","","","","","","","","","",""
"","null","image-keyboard-response","277","2.0.0","368353","po16pvz0ydw","leopard","null","stimuli\EXEMPLAR\USED\Ecamera2.jpg","","","","","Memory","false","null","","","",""
"","null","html-keyboard-response","278","2.0.0","368862","po16pvz0ydw","leopard","null","<div style=""font-size:60px; color: black;"">+</div>","","","","","","","","","","",""
"","null","image-keyboard-response","279","2.0.0","370867","po16pvz0ydw","leopard","null","stimuli\STATE\USED\Sgiftbox1.jpg","","","","","Memory","false","null","","","",""
"","null","html-keyboard-response","280","2.0.0","371375","po16pvz0ydw","leopard","null","<div style=""font-size:60px; color: black;"">+</div>","","","","","","","","","","",""
"","null","image-keyboard-response","281","2.0.0","373391","po16pvz0ydw","leopard","null","stimuli\STATE\USED\Scooker1.jpg","","","","","Memory","false","null","","","",""
"","null","html-keyboard-response","282","2.0.0","373903","po16pvz0ydw","leopard","null","<div style=""font-size:60px; color: black;"">+</div>","","","","","","","","","","",""
"","690","image-keyboard-response","283","2.0.0","375915","po16pvz0ydw","leopard"," ","stimuli\EXEMPLAR\USED\Ehoe1.jpg","","","","","Memory","true","true","","","",""
"","null","html-keyboard-response","284","2.0.0","376425","po16pvz0ydw","leopard","null","<div style=""font-size:60px; color: green;"">+</div>","","","","","","","","","","",""
"","null","image-keyboard-response","285","2.0.0","378439","po16pvz0ydw","leopard","null","stimuli\EXEMPLAR\USED\Etrophy1.jpg","","","","","Memory","false","null","","","",""
"","null","html-keyboard-response","286","2.0.0","378949","po16pvz0ydw","leopard","null","<div style=""font-size:60px; color: black;"">+</div>","","","","","","","","","","",""
"","null","image-keyboard-response","287","2.0.0","380966","po16pvz0ydw","leopard","null","stimuli\EXEMPLAR\USED\Emuffler1.jpg","","","","","Memory","false","null","","","",""
"","null","html-keyboard-response","288","2.0.0","381475","po16pvz0ydw","leopard","null","<div style=""font-size:60px; color: black;"">+</div>","","","","","","","","","","",""
"","null","image-keyboard-response","289","2.0.0","383485","po16pvz0ydw","leopard","null","stimuli\STATE\USED\Sseats1.jpg","","","","","Memory","false","null","","","",""
"","null","html-keyboard-response","290","2.0.0","383994","po16pvz0ydw","leopard","null","<div style=""font-size:60px; color: black;"">+</div>","","","","","","","","","","",""
"","null","image-keyboard-response","291","2.0.0","386004","po16pvz0ydw","leopard","null","stimuli\STATE\USED\Spadlock2.jpg","","","","","Memory","false","null","","","",""
"","null","html-keyboard-response","292","2.0.0","386514","po16pvz0ydw","leopard","null","<div style=""font-size:60px; color: black;"">+</div>","","","","","","","","","","",""
"","null","image-keyboard-response","293","2.0.0","388521","po16pvz0ydw","leopard","null","stimuli\EXEMPLAR\USED\Emicroscope2.jpg","","","","","Memory","false","null","","","",""
"","null","html-keyboard-response","294","2.0.0","389030","po16pvz0ydw","leopard","null","<div style=""font-size:60px; color: black;"">+</div>","","","","","","","","","","",""
"","null","image-keyboard-response","295","2.0.0","391042","po16pvz0ydw","leopard","null","stimuli\STATE\USED\Sdrum2.jpg","","","","","Memory","false","null","","","",""
"","null","html-keyboard-response","296","2.0.0","391553","po16pvz0ydw","leopard","null","<div style=""font-size:60px; color: black;"">+</div>","","","","","","","","","","",""
"","1653","image-keyboard-response","297","2.0.0","393560","po16pvz0ydw","leopard"," ","stimuli\STATE\USED\Sseats1.jpg","","","","","Memory","true","true","","","",""
"","null","html-keyboard-response","298","2.0.0","394069","po16pvz0ydw","leopard","null","<div style=""font-size:60px; color: green;"">+</div>","","","","","","","","","","",""
"","null","image-keyboard-response","299","2.0.0","396073","po16pvz0ydw","leopard","null","stimuli\STATE\USED\Sdryer2.jpg","","","","","Memory","false","null","","","",""
"","null","html-keyboard-response","300","2.0.0","396583","po16pvz0ydw","leopard","null","<div style=""font-size:60px; color: black;"">+</div>","","","","","","","","","","",""
"","null","image-keyboard-response","301","2.0.0","398590","po16pvz0ydw","leopard","null","stimuli\STATE\USED\Sphoneold1.jpg","","","","","Memory","false","null","","","",""
"","null","html-keyboard-response","302","2.0.0","399100","po16pvz0ydw","leopard","null","<div style=""font-size:60px; color: black;"">+</div>","","","","","","","","","","",""
"","null","image-keyboard-response","303","2.0.0","401114","po16pvz0ydw","leopard","null","stimuli\EXEMPLAR\USED\Ebicycle2.jpg","","","","","Memory","false","null","","","",""
"","null","html-keyboard-response","304","2.0.0","401619","po16pvz0ydw","leopard","null","<div style=""font-size:60px; color: black;"">+</div>","","","","","","","","","","",""
"","null","image-keyboard-response","305","2.0.0","403629","po16pvz0ydw","leopard","null","stimuli\STATE\USED\Sjuiceglass1.JPG","","","","","Memory","false","null","","","",""
"","null","html-keyboard-response","306","2.0.0","404138","po16pvz0ydw","leopard","null","<div style=""font-size:60px; color: black;"">+</div>","","","","","","","","","","",""
"","617","image-keyboard-response","307","2.0.0","406154","po16pvz0ydw","leopard"," ","stimuli\STATE\USED\Sdryer2.jpg","","","","","Memory","true","true","","","",""
"","null","html-keyboard-response","308","2.0.0","406662","po16pvz0ydw","leopard","null","<div style=""font-size:60px; color: green;"">+</div>","","","","","","","","","","",""
"","null","image-keyboard-response","309","2.0.0","408672","po16pvz0ydw","leopard","null","stimuli\EXEMPLAR\USED\Etractor2.jpg","","","","","Memory","false","null","","","",""
"","null","html-keyboard-response","310","2.0.0","409176","po16pvz0ydw","leopard","null","<div style=""font-size:60px; color: black;"">+</div>","","","","","","","","","","",""
"","null","image-keyboard-response","311","2.0.0","411182","po16pvz0ydw","leopard","null","stimuli\EXEMPLAR\USED\Ewineglass2.jpg","","","","","Memory","false","null","","","",""
"","null","html-keyboard-response","312","2.0.0","411694","po16pvz0ydw","leopard","null","<div style=""font-size:60px; color: black;"">+</div>","","","","","","","","","","",""
"","1137","html-button-response","313","2.0.0","412831","po16pvz0ydw","leopard","0","Are you still there?","","","","","Attention Check","","","","","",""
"","null","image-keyboard-response","314","2.0.0","414840","po16pvz0ydw","leopard","null","stimuli\STATE\USED\Sapplesredbasket1.JPG","","","","","Memory","false","null","","","",""
"","null","html-keyboard-response","315","2.0.0","415350","po16pvz0ydw","leopard","null","<div style=""font-size:60px; color: black;"">+</div>","","","","","","","","","","",""
"","null","image-keyboard-response","316","2.0.0","417360","po16pvz0ydw","leopard","null","stimuli\EXEMPLAR\USED\Eelectricbass2.jpg","","","","","Memory","false","null","","","",""
"","null","html-keyboard-response","317","2.0.0","417876","po16pvz0ydw","leopard","null","<div style=""font-size:60px; color: black;"">+</div>","","","","","","","","","","",""
"","null","image-keyboard-response","318","2.0.0","419888","po16pvz0ydw","leopard","null","stimuli\EXEMPLAR\USED\Ehelmet1.jpg","","","","","Memory","false","null","","","",""
"","null","html-keyboard-response","319","2.0.0","420395","po16pvz0ydw","leopard","null","<div style=""font-size:60px; color: black;"">+</div>","","","","","","","","","","",""
"","null","image-keyboard-response","320","2.0.0","422405","po16pvz0ydw","leopard","null","stimuli\STATE\USED\Sbreadslice1.jpg","","","","","Memory","false","null","","","",""
"","null","html-keyboard-response","321","2.0.0","422914","po16pvz0ydw","leopard","null","<div style=""font-size:60px; color: black;"">+</div>","","","","","","","","","","",""
"","null","image-keyboard-response","322","2.0.0","424918","po16pvz0ydw","leopard","null","stimuli\EXEMPLAR\USED\Efishbowl1.jpg","","","","","Memory","false","null","","","",""
"","null","html-keyboard-response","323","2.0.0","425426","po16pvz0ydw","leopard","null","<div style=""font-size:60px; color: black;"">+</div>","","","","","","","","","","",""
"","null","image-keyboard-response","324","2.0.0","427437","po16pvz0ydw","leopard","null","stimuli\EXEMPLAR\USED\Echopsticks1.jpg","","","","","Memory","false","null","","","",""
"","null","html-keyboard-response","325","2.0.0","427945","po16pvz0ydw","leopard","null","<div style=""font-size:60px; color: black;"">+</div>","","","","","","","","","","",""
"","null","image-keyboard-response","326","2.0.0","429949","po16pvz0ydw","leopard","null","stimuli\EXEMPLAR\USED\Elei1.jpg","","","","","Memory","false","null","","","",""
"","null","html-keyboard-response","327","2.0.0","430459","po16pvz0ydw","leopard","null","<div style=""font-size:60px; color: black;"">+</div>","","","","","","","","","","",""
"","null","image-keyboard-response","328","2.0.0","432473","po16pvz0ydw","leopard","null","stimuli\STATE\USED\Sbooks2.JPG","","","","","Memory","false","null","","","",""
"","null","html-keyboard-response","329","2.0.0","432983","po16pvz0ydw","leopard","null","<div style=""font-size:60px; color: black;"">+</div>","","","","","","","","","","",""
"","null","image-keyboard-response","330","2.0.0","434992","po16pvz0ydw","leopard","null","stimuli\STATE\USED\Sgrinder1.jpg","","","","","Memory","false","null","","","",""
"","null","html-keyboard-response","331","2.0.0","435502","po16pvz0ydw","leopard","null","<div style=""font-size:60px; color: black;"">+</div>","","","","","","","","","","",""
"","null","image-keyboard-response","332","2.0.0","437511","po16pvz0ydw","leopard","null","stimuli\EXEMPLAR\USED\Esuitcase2.jpg","","","","","Memory","false","null","","","",""
"","null","html-keyboard-response","333","2.0.0","438021","po16pvz0ydw","leopard","null","<div style=""font-size:60px; color: black;"">+</div>","","","","","","","","","","",""
"","null","image-keyboard-response","334","2.0.0","440037","po16pvz0ydw","leopard","null","stimuli\STATE\USED\Swaffleiron1.jpg","","","","","Memory","false","null","","","",""
"","null","html-keyboard-response","335","2.0.0","440546","po16pvz0ydw","leopard","null","<div style=""font-size:60px; color: black;"">+</div>","","","","","","","","","","",""
"","null","image-keyboard-response","336","2.0.0","442551","po16pvz0ydw","leopard","null","stimuli\STATE\USED\Spestle1.jpg","","","","","Memory","false","null","","","",""
"","null","html-keyboard-response","337","2.0.0","443062","po16pvz0ydw","leopard","null","<div style=""font-size:60px; color: black;"">+</div>","","","","","","","","","","",""
"","null","image-keyboard-response","338","2.0.0","445071","po16pvz0ydw","leopard","null","stimuli\EXEMPLAR\USED\Ecalculator2.jpg","","","","","Memory","false","null","","","",""
"","null","html-keyboard-response","339","2.0.0","445581","po16pvz0ydw","leopard","null","<div style=""font-size:60px; color: black;"">+</div>","","","","","","","","","","",""
"","549","image-keyboard-response","340","2.0.0","447584","po16pvz0ydw","leopard"," ","stimuli\EXEMPLAR\USED\Esuitcase2.jpg","","","","","Memory","true","true","","","",""
"","null","html-keyboard-response","341","2.0.0","448094","po16pvz0ydw","leopard","null","<div style=""font-size:60px; color: green;"">+</div>","","","","","","","","","","",""
"","null","image-keyboard-response","342","2.0.0","450099","po16pvz0ydw","leopard","null","stimuli\EXEMPLAR\USED\Eladder1.jpg","","","","","Memory","false","null","","","",""
"","null","html-keyboard-response","343","2.0.0","450606","po16pvz0ydw","leopard","null","<div style=""font-size:60px; color: black;"">+</div>","","","","","","","","","","",""
"","null","image-keyboard-response","344","2.0.0","452609","po16pvz0ydw","leopard","null","stimuli\EXEMPLAR\USED\Esunglasses1.jpg","","","","","Memory","false","null","","","",""
"","null","html-keyboard-response","345","2.0.0","453119","po16pvz0ydw","leopard","null","<div style=""font-size:60px; color: black;"">+</div>","","","","","","","","","","",""
"","null","image-keyboard-response","346","2.0.0","455126","po16pvz0ydw","leopard","null","stimuli\STATE\USED\Sbox1.jpg","","","","","Memory","false","null","","","",""
"","null","html-keyboard-response","347","2.0.0","455637","po16pvz0ydw","leopard","null","<div style=""font-size:60px; color: black;"">+</div>","","","","","","","","","","",""
"","5399","html-keyboard-response","348","2.0.0","461037","po16pvz0ydw","leopard"," ","
          <p>In the next part of this experiment, you will see 2 images. Please select the image that you recall from the image stream.</p>
          <p>You will also rate your confidence for each image you recall.</p>
          <p>Press any key to start.</p>
        ","","","","","","","","","","",""
"","4715","html-button-response","349","2.0.0","465753","po16pvz0ydw","leopard","1","Which of these items did you see before?","","","","","Test","","true","[""stimuli\\STATE\\USED\\Ssweater1.jpg"",""stimuli\\STATE\\USED\\Ssweater2.jpg""]","stimuli\STATE\USED\Ssweater2.jpg","stimuli\STATE\USED\Ssweater2.jpg",""
"","2719","image-slider-response","350","2.0.0","468473","po16pvz0ydw","leopard","3","stimuli\STATE\USED\Ssweater2.jpg","","","","","","","","","","","3"
"","2279","html-button-response","351","2.0.0","470753","po16pvz0ydw","leopard","1","Which of these items did you see before?","","","","","Test","","true","[""stimuli\\EXEMPLAR\\USED\\Edispenser2.jpg"",""stimuli\\EXEMPLAR\\USED\\Edispenser1.jpg""]","stimuli\EXEMPLAR\USED\Edispenser1.jpg","stimuli\EXEMPLAR\USED\Edispenser1.jpg",""
"","1638","image-slider-response","352","2.0.0","472392","po16pvz0ydw","leopard","2","stimuli\EXEMPLAR\USED\Edispenser1.jpg","","","","","","","","","","","3"
"","3093","html-button-response","353","2.0.0","475486","po16pvz0ydw","leopard","0","Which of these items did you see before?","","","","","Test","","false","[""stimuli\\STATE\\USED\\Sbarnmailbox2.jpg"",""stimuli\\STATE\\USED\\Sbarnmailbox1.jpg""]","stimuli\STATE\USED\Sbarnmailbox1.jpg","stimuli\STATE\USED\Sbarnmailbox2.jpg",""
"","2312","image-slider-response","354","2.0.0","477799","po16pvz0ydw","leopard","4","stimuli\STATE\USED\Sbarnmailbox2.jpg","","","","","","","","","","","3"
"","1589","html-button-response","355","2.0.0","479389","po16pvz0ydw","leopard","1","Which of these items did you see before?","","","","","Test","","true","[""stimuli\\EXEMPLAR\\USED\\Eswimsuit1.jpg"",""stimuli\\EXEMPLAR\\USED\\Eswimsuit2.jpg""]","stimuli\EXEMPLAR\USED\Eswimsuit2.jpg","stimuli\EXEMPLAR\USED\Eswimsuit2.jpg",""
"","2091","image-slider-response","356","2.0.0","481481","po16pvz0ydw","leopard","4","stimuli\EXEMPLAR\USED\Eswimsuit2.jpg","","","","","","","","","","","3"
"","870","html-button-response","357","2.0.0","482351","po16pvz0ydw","leopard","0","Which of these items did you see before?","","","","","Test","","true","[""stimuli\\EXEMPLAR\\USED\\Eplate2.jpg"",""stimuli\\EXEMPLAR\\USED\\Eplate1.jpg""]","stimuli\EXEMPLAR\USED\Eplate2.jpg","stimuli\EXEMPLAR\USED\Eplate2.jpg",""
"","1134","image-slider-response","358","2.0.0","483486","po16pvz0ydw","leopard","5","stimuli\EXEMPLAR\USED\Eplate2.jpg","","","","","","","","","","","3"
"","2208","html-button-response","359","2.0.0","485694","po16pvz0ydw","leopard","1","Which of these items did you see before?","","","","","Test","","true","[""stimuli\\STATE\\USED\\Sgiftbag1.jpg"",""stimuli\\STATE\\USED\\Sgiftbag2.jpg""]","stimuli\STATE\USED\Sgiftbag2.jpg","stimuli\STATE\USED\Sgiftbag2.jpg",""
"","1658","image-slider-response","360","2.0.0","487353","po16pvz0ydw","leopard","5","stimuli\STATE\USED\Sgiftbag2.jpg","","","","","","","","","","","3"
"","2639","html-button-response","361","2.0.0","489992","po16pvz0ydw","leopard","1","Which of these items did you see before?","","","","","Test","","true","[""stimuli\\EXEMPLAR\\USED\\Efolder1.jpg"",""stimuli\\EXEMPLAR\\USED\\Efolder2.jpg""]","stimuli\EXEMPLAR\USED\Efolder2.jpg","stimuli\EXEMPLAR\USED\Efolder2.jpg",""
"","1538","image-slider-response","362","2.0.0","491531","po16pvz0ydw","leopard","4","stimuli\EXEMPLAR\USED\Efolder2.jpg","","","","","","","","","","","3"
"","1986","html-button-response","363","2.0.0","493517","po16pvz0ydw","leopard","0","Which of these items did you see before?","","","","","Test","","true","[""stimuli\\STATE\\USED\\Sbox1.jpg"",""stimuli\\STATE\\USED\\Sbox2.jpg""]","stimuli\STATE\USED\Sbox1.jpg","stimuli\STATE\USED\Sbox1.jpg",""
"","1153","image-slider-response","364","2.0.0","494671","po16pvz0ydw","leopard","5","stimuli\STATE\USED\Sbox1.jpg","","","","","","","","","","","3"
"","1534","html-button-response","365","2.0.0","496205","po16pvz0ydw","leopard","0","Which of these items did you see before?","","","","","Test","","true","[""stimuli\\EXEMPLAR\\USED\\Efishbowl1.jpg"",""stimuli\\EXEMPLAR\\USED\\Efishbowl2.jpg""]","stimuli\EXEMPLAR\USED\Efishbowl1.jpg","stimuli\EXEMPLAR\USED\Efishbowl1.jpg",""
"","1467","image-slider-response","366","2.0.0","497673","po16pvz0ydw","leopard","4","stimuli\EXEMPLAR\USED\Efishbowl1.jpg","","","","","","","","","","","3"
"","1387","html-button-response","367","2.0.0","499061","po16pvz0ydw","leopard","1","Which of these items did you see before?","","","","","Test","","true","[""stimuli\\EXEMPLAR\\USED\\Erabbit1.jpg"",""stimuli\\EXEMPLAR\\USED\\Erabbit2.jpg""]","stimuli\EXEMPLAR\USED\Erabbit2.jpg","stimuli\EXEMPLAR\USED\Erabbit2.jpg",""
"","1245","image-slider-response","368","2.0.0","500307","po16pvz0ydw","leopard","5","stimuli\EXEMPLAR\USED\Erabbit2.jpg","","","","","","","","","","","3"
"","1332","html-button-response","369","2.0.0","501639","po16pvz0ydw","leopard","1","Which of these items did you see before?","","","","","Test","","true","[""stimuli\\EXEMPLAR\\USED\\Econe1.jpg"",""stimuli\\EXEMPLAR\\USED\\Econe2.jpg""]","stimuli\EXEMPLAR\USED\Econe2.jpg","stimuli\EXEMPLAR\USED\Econe2.jpg",""
"","1375","image-slider-response","370","2.0.0","503015","po16pvz0ydw","leopard","5","stimuli\EXEMPLAR\USED\Econe2.jpg","","","","","","","","","","","3"
"","2075","html-button-response","371","2.0.0","505091","po16pvz0ydw","leopard","1","Which of these items did you see before?","","","","","Test","","true","[""stimuli\\EXEMPLAR\\USED\\Ebread1.jpg"",""stimuli\\EXEMPLAR\\USED\\Ebread2.jpg""]","stimuli\EXEMPLAR\USED\Ebread2.jpg","stimuli\EXEMPLAR\USED\Ebread2.jpg",""
"","1025","image-slider-response","372","2.0.0","506117","po16pvz0ydw","leopard","4","stimuli\EXEMPLAR\USED\Ebread2.jpg","","","","","","","","","","","3"
"","3382","html-button-response","373","2.0.0","509500","po16pvz0ydw","leopard","0","Which of these items did you see before?","","","","","Test","","true","[""stimuli\\STATE\\USED\\Sscales1.jpg"",""stimuli\\STATE\\USED\\Sscales2.jpg""]","stimuli\STATE\USED\Sscales1.jpg","stimuli\STATE\USED\Sscales1.jpg",""
"","2190","image-slider-response","374","2.0.0","511691","po16pvz0ydw","leopard","1","stimuli\STATE\USED\Sscales1.jpg","","","","","","","","","","","3"
"","882","html-button-response","375","2.0.0","512574","po16pvz0ydw","leopard","0","Which of these items did you see before?","","","","","Test","","true","[""stimuli\\EXEMPLAR\\USED\\Ehelmet1.jpg"",""stimuli\\EXEMPLAR\\USED\\Ehelmet2.jpg""]","stimuli\EXEMPLAR\USED\Ehelmet1.jpg","stimuli\EXEMPLAR\USED\Ehelmet1.jpg",""
"","2556","image-slider-response","376","2.0.0","515131","po16pvz0ydw","leopard","5","stimuli\EXEMPLAR\USED\Ehelmet1.jpg","","","","","","","","","","","3"
"","1138","html-button-response","377","2.0.0","516269","po16pvz0ydw","leopard","1","Which of these items did you see before?","","","","","Test","","true","[""stimuli\\STATE\\USED\\Seggplant1.jpg"",""stimuli\\STATE\\USED\\Seggplant2.jpg""]","stimuli\STATE\USED\Seggplant2.jpg","stimuli\STATE\USED\Seggplant2.jpg",""
"","1251","image-slider-response","378","2.0.0","517521","po16pvz0ydw","leopard","5","stimuli\STATE\USED\Seggplant2.jpg","","","","","","","","","","","3"
"","1634","html-button-response","379","2.0.0","519156","po16pvz0ydw","leopard","0","Which of these items did you see before?","","","","","Test","","true","[""stimuli\\STATE\\USED\\Sphone2.JPG"",""stimuli\\STATE\\USED\\Sphone1.JPG""]","stimuli\STATE\USED\Sphone2.JPG","stimuli\STATE\USED\Sphone2.JPG",""
"","939","image-slider-response","380","2.0.0","520095","po16pvz0ydw","leopard","4","stimuli\STATE\USED\Sphone2.JPG","","","","","","","","","","","3"
"","1590","html-button-response","381","2.0.0","521686","po16pvz0ydw","leopard","1","Which of these items did you see before?","","","","","Test","","true","[""stimuli\\EXEMPLAR\\USED\\Earch1.jpg"",""stimuli\\EXEMPLAR\\USED\\Earch2.jpg""]","stimuli\EXEMPLAR\USED\Earch2.jpg","stimuli\EXEMPLAR\USED\Earch2.jpg",""
"","1166","image-slider-response","382","2.0.0","522853","po16pvz0ydw","leopard","5","stimuli\EXEMPLAR\USED\Earch2.jpg","","","","","","","","","","","3"
"","1312","html-button-response","383","2.0.0","524166","po16pvz0ydw","leopard","1","Which of these items did you see before?","","","","","Test","","true","[""stimuli\\STATE\\USED\\Spestle2.jpg"",""stimuli\\STATE\\USED\\Spestle1.jpg""]","stimuli\STATE\USED\Spestle1.jpg","stimuli\STATE\USED\Spestle1.jpg",""
"","1654","image-slider-response","384","2.0.0","525821","po16pvz0ydw","leopard","4","stimuli\STATE\USED\Spestle1.jpg","","","","","","","","","","","3"
"","1309","html-button-response","385","2.0.0","527131","po16pvz0ydw","leopard","1","Which of these items did you see before?","","","","","Test","","true","[""stimuli\\EXEMPLAR\\USED\\Etoyhand2.jpg"",""stimuli\\EXEMPLAR\\USED\\Etoyhand1.jpg""]","stimuli\EXEMPLAR\USED\Etoyhand1.jpg","stimuli\EXEMPLAR\USED\Etoyhand1.jpg",""
"","1273","image-slider-response","386","2.0.0","528405","po16pvz0ydw","leopard","5","stimuli\EXEMPLAR\USED\Etoyhand1.jpg","","","","","","","","","","","3"
"","1634","html-button-response","387","2.0.0","530040","po16pvz0ydw","leopard","1","Which of these items did you see before?","","","","","Test","","true","[""stimuli\\EXEMPLAR\\USED\\Ecake2.jpg"",""stimuli\\EXEMPLAR\\USED\\Ecake1.jpg""]","stimuli\EXEMPLAR\USED\Ecake1.jpg","stimuli\EXEMPLAR\USED\Ecake1.jpg",""
"","1318","image-slider-response","388","2.0.0","531359","po16pvz0ydw","leopard","5","stimuli\EXEMPLAR\USED\Ecake1.jpg","","","","","","","","","","","3"
"","815","html-button-response","389","2.0.0","532175","po16pvz0ydw","leopard","0","Which of these items did you see before?","","","","","Test","","true","[""stimuli\\STATE\\USED\\Shandsign1.JPG"",""stimuli\\STATE\\USED\\Shandsign2.JPG""]","stimuli\STATE\USED\Shandsign1.JPG","stimuli\STATE\USED\Shandsign1.JPG",""
"","1116","image-slider-response","390","2.0.0","533292","po16pvz0ydw","leopard","5","stimuli\STATE\USED\Shandsign1.JPG","","","","","","","","","","","3"
"","2332","html-button-response","391","2.0.0","535625","po16pvz0ydw","leopard","0","Which of these items did you see before?","","","","","Test","","true","[""stimuli\\EXEMPLAR\\USED\\Emitt1.jpg"",""stimuli\\EXEMPLAR\\USED\\Emitt2.jpg""]","stimuli\EXEMPLAR\USED\Emitt1.jpg","stimuli\EXEMPLAR\USED\Emitt1.jpg",""
"","1488","image-slider-response","392","2.0.0","537114","po16pvz0ydw","leopard","2","stimuli\EXEMPLAR\USED\Emitt1.jpg","","","","","","","","","","","3"
"","3953","html-button-response","393","2.0.0","541067","po16pvz0ydw","leopard","1","Which of these items did you see before?","","","","","Test","","true","[""stimuli\\EXEMPLAR\\USED\\Echopsticks2.jpg"",""stimuli\\EXEMPLAR\\USED\\Echopsticks1.jpg""]","stimuli\EXEMPLAR\USED\Echopsticks1.jpg","stimuli\EXEMPLAR\USED\Echopsticks1.jpg",""
"","1155","image-slider-response","394","2.0.0","542223","po16pvz0ydw","leopard","5","stimuli\EXEMPLAR\USED\Echopsticks1.jpg","","","","","","","","","","","3"
"","2001","html-button-response","395","2.0.0","544224","po16pvz0ydw","leopard","0","Which of these items did you see before?","","","","","Test","","true","[""stimuli\\EXEMPLAR\\USED\\Ehotairballoon1.jpg"",""stimuli\\EXEMPLAR\\USED\\Ehotairballoon2.jpg""]","stimuli\EXEMPLAR\USED\Ehotairballoon1.jpg","stimuli\EXEMPLAR\USED\Ehotairballoon1.jpg",""
"","1042","image-slider-response","396","2.0.0","545267","po16pvz0ydw","leopard","2","stimuli\EXEMPLAR\USED\Ehotairballoon1.jpg","","","","","","","","","","","3"
"","835","html-button-response","397","2.0.0","546103","po16pvz0ydw","leopard","0","Which of these items did you see before?","","","","","Test","","true","[""stimuli\\EXEMPLAR\\USED\\Eremover2.jpg"",""stimuli\\EXEMPLAR\\USED\\Eremover1.jpg""]","stimuli\EXEMPLAR\USED\Eremover2.jpg","stimuli\EXEMPLAR\USED\Eremover2.jpg",""
"","925","image-slider-response","398","2.0.0","547029","po16pvz0ydw","leopard","4","stimuli\EXEMPLAR\USED\Eremover2.jpg","","","","","","","","","","","3"
"","2624","html-button-response","399","2.0.0","549653","po16pvz0ydw","leopard","1","Which of these items did you see before?","","","","","Test","","true","[""stimuli\\STATE\\USED\\Smedicaltape1.jpg"",""stimuli\\STATE\\USED\\Smedicaltape2.jpg""]","stimuli\STATE\USED\Smedicaltape2.jpg","stimuli\STATE\USED\Smedicaltape2.jpg",""
"","1584","image-slider-response","400","2.0.0","551238","po16pvz0ydw","leopard","4","stimuli\STATE\USED\Smedicaltape2.jpg","","","","","","","","","","","3"
"","1078","html-button-response","401","2.0.0","552316","po16pvz0ydw","leopard","0","Which of these items did you see before?","","","","","Test","","true","[""stimuli\\STATE\\USED\\Sdonut1.jpg"",""stimuli\\STATE\\USED\\Sdonut2.jpg""]","stimuli\STATE\USED\Sdonut1.jpg","stimuli\STATE\USED\Sdonut1.jpg",""
"","1535","image-slider-response","402","2.0.0","553852","po16pvz0ydw","leopard","4","stimuli\STATE\USED\Sdonut1.jpg","","","","","","","","","","","3"
"","2384","html-button-response","403","2.0.0","556237","po16pvz0ydw","leopard","0","Which of these items did you see before?","","","","","Test","","true","[""stimuli\\EXEMPLAR\\USED\\Egame2.jpg"",""stimuli\\EXEMPLAR\\USED\\Egame1.jpg""]","stimuli\EXEMPLAR\USED\Egame2.jpg","stimuli\EXEMPLAR\USED\Egame2.jpg",""
"","1560","image-slider-response","404","2.0.0","557798","po16pvz0ydw","leopard","5","stimuli\EXEMPLAR\USED\Egame2.jpg","","","","","","","","","","","3"
"","771","html-button-response","405","2.0.0","558570","po16pvz0ydw","leopard","0","Which of these items did you see before?","","","","","Test","","true","[""stimuli\\EXEMPLAR\\USED\\Eballoon1.jpg"",""stimuli\\EXEMPLAR\\USED\\Eballoon2.jpg""]","stimuli\EXEMPLAR\USED\Eballoon1.jpg","stimuli\EXEMPLAR\USED\Eballoon1.jpg",""
"","3041","image-slider-response","406","2.0.0","561612","po16pvz0ydw","leopard","3","stimuli\EXEMPLAR\USED\Eballoon1.jpg","","","","","","","","","","","3"
"","822","html-button-response","407","2.0.0","562435","po16pvz0ydw","leopard","0","Which of these items did you see before?","","","","","Test","","true","[""stimuli\\STATE\\USED\\Sbooks2.JPG"",""stimuli\\STATE\\USED\\Sbooks1.JPG""]","stimuli\STATE\USED\Sbooks2.JPG","stimuli\STATE\USED\Sbooks2.JPG",""
"","1100","image-slider-response","408","2.0.0","563536","po16pvz0ydw","leopard","4","stimuli\STATE\USED\Sbooks2.JPG","","","","","","","","","","","3"
"","788","html-button-response","409","2.0.0","564324","po16pvz0ydw","leopard","0","Which of these items did you see before?","","","","","Test","","true","[""stimuli\\EXEMPLAR\\USED\\Ebrick2.jpg"",""stimuli\\EXEMPLAR\\USED\\Ebrick1.jpg""]","stimuli\EXEMPLAR\USED\Ebrick2.jpg","stimuli\EXEMPLAR\USED\Ebrick2.jpg",""
"","1756","image-slider-response","410","2.0.0","566081","po16pvz0ydw","leopard","4","stimuli\EXEMPLAR\USED\Ebrick2.jpg","","","","","","","","","","","3"
"","955","html-button-response","411","2.0.0","567037","po16pvz0ydw","leopard","1","Which of these items did you see before?","","","","","Test","","true","[""stimuli\\EXEMPLAR\\USED\\Ekayak2.jpg"",""stimuli\\EXEMPLAR\\USED\\Ekayak1.jpg""]","stimuli\EXEMPLAR\USED\Ekayak1.jpg","stimuli\EXEMPLAR\USED\Ekayak1.jpg",""
"","2781","image-slider-response","412","2.0.0","569819","po16pvz0ydw","leopard","3","stimuli\EXEMPLAR\USED\Ekayak1.jpg","","","","","","","","","","","3"
"","1545","html-button-response","413","2.0.0","571365","po16pvz0ydw","leopard","0","Which of these items did you see before?","","","","","Test","","true","[""stimuli\\STATE\\USED\\Sboxwhite1.jpg"",""stimuli\\STATE\\USED\\Sboxwhite2.jpg""]","stimuli\STATE\USED\Sboxwhite1.jpg","stimuli\STATE\USED\Sboxwhite1.jpg",""
"","969","image-slider-response","414","2.0.0","572335","po16pvz0ydw","leopard","3","stimuli\STATE\USED\Sboxwhite1.jpg","","","","","","","","","","","3"
"","1024","html-button-response","415","2.0.0","573359","po16pvz0ydw","leopard","1","Which of these items did you see before?","","","","","Test","","true","[""stimuli\\STATE\\USED\\Sbelt1.jpg"",""stimuli\\STATE\\USED\\Sbelt2.jpg""]","stimuli\STATE\USED\Sbelt2.jpg","stimuli\STATE\USED\Sbelt2.jpg",""
"","927","image-slider-response","416","2.0.0","574287","po16pvz0ydw","leopard","4","stimuli\STATE\USED\Sbelt2.jpg","","","","","","","","","","","3"
"","786","html-button-response","417","2.0.0","575074","po16pvz0ydw","leopard","0","Which of these items did you see before?","","","","","Test","","true","[""stimuli\\EXEMPLAR\\USED\\Eelectricbass2.jpg"",""stimuli\\EXEMPLAR\\USED\\Eelectricbass1.jpg""]","stimuli\EXEMPLAR\USED\Eelectricbass2.jpg","stimuli\EXEMPLAR\USED\Eelectricbass2.jpg",""
"","850","image-slider-response","418","2.0.0","575924","po16pvz0ydw","leopard","4","stimuli\EXEMPLAR\USED\Eelectricbass2.jpg","","","","","","","","","","","3"
"","1804","html-button-response","419","2.0.0","577729","po16pvz0ydw","leopard","0","Which of these items did you see before?","","","","","Test","","true","[""stimuli\\EXEMPLAR\\USED\\Eturtle1.jpg"",""stimuli\\EXEMPLAR\\USED\\Eturtle2.jpg""]","stimuli\EXEMPLAR\USED\Eturtle1.jpg","stimuli\EXEMPLAR\USED\Eturtle1.jpg",""
"","1872","image-slider-response","420","2.0.0","579602","po16pvz0ydw","leopard","3","stimuli\EXEMPLAR\USED\Eturtle1.jpg","","","","","","","","","","","3"
"","1226","html-button-response","421","2.0.0","580828","po16pvz0ydw","leopard","0","Which of these items did you see before?","","","","","Test","","false","[""stimuli\\STATE\\USED\\Sdie1.jpg"",""stimuli\\STATE\\USED\\Sdie2.jpg""]","stimuli\STATE\USED\Sdie2.jpg","stimuli\STATE\USED\Sdie1.jpg",""
"","1399","image-slider-response","422","2.0.0","582228","po16pvz0ydw","leopard","2","stimuli\STATE\USED\Sdie1.jpg","","","","","","","","","","","3"
"","2333","html-button-response","423","2.0.0","584562","po16pvz0ydw","leopard","1","Which of these items did you see before?","","","","","Test","","true","[""stimuli\\STATE\\USED\\Sseatbelt2.jpg"",""stimuli\\STATE\\USED\\Sseatbelt1.jpg""]","stimuli\STATE\USED\Sseatbelt1.jpg","stimuli\STATE\USED\Sseatbelt1.jpg",""
"","1152","image-slider-response","424","2.0.0","585715","po16pvz0ydw","leopard","2","stimuli\STATE\USED\Sseatbelt1.jpg","","","","","","","","","","","3"
"","1802","html-button-response","425","2.0.0","587518","po16pvz0ydw","leopard","0","Which of these items did you see before?","","","","","Test","","true","[""stimuli\\EXEMPLAR\\USED\\Emuffin1.jpg"",""stimuli\\EXEMPLAR\\USED\\Emuffin2.jpg""]","stimuli\EXEMPLAR\USED\Emuffin1.jpg","stimuli\EXEMPLAR\USED\Emuffin1.jpg",""
"","1627","image-slider-response","426","2.0.0","589146","po16pvz0ydw","leopard","2","stimuli\EXEMPLAR\USED\Emuffin1.jpg","","","","","","","","","","","3"
"","1527","html-button-response","427","2.0.0","590673","po16pvz0ydw","leopard","1","Which of these items did you see before?","","","","","Test","","true","[""stimuli\\STATE\\USED\\Sbreadslice2.jpg"",""stimuli\\STATE\\USED\\Sbreadslice1.jpg""]","stimuli\STATE\USED\Sbreadslice1.jpg","stimuli\STATE\USED\Sbreadslice1.jpg",""
"","1130","image-slider-response","428","2.0.0","591804","po16pvz0ydw","leopard","4","stimuli\STATE\USED\Sbreadslice1.jpg","","","","","","","","","","","3"
"","799","html-button-response","429","2.0.0","592603","po16pvz0ydw","leopard","0","Which of these items did you see before?","","","","","Test","","true","[""stimuli\\EXEMPLAR\\USED\\Esunglasses1.jpg"",""stimuli\\EXEMPLAR\\USED\\Esunglasses2.jpg""]","stimuli\EXEMPLAR\USED\Esunglasses1.jpg","stimuli\EXEMPLAR\USED\Esunglasses1.jpg",""
"","1018","image-slider-response","430","2.0.0","593622","po16pvz0ydw","leopard","5","stimuli\EXEMPLAR\USED\Esunglasses1.jpg","","","","","","","","","","","3"
"","1201","html-button-response","431","2.0.0","594824","po16pvz0ydw","leopard","0","Which of these items did you see before?","","","","","Test","","true","[""stimuli\\EXEMPLAR\\USED\\Etoykeys2.JPG"",""stimuli\\EXEMPLAR\\USED\\Etoykeys1.jpg""]","stimuli\EXEMPLAR\USED\Etoykeys2.JPG","stimuli\EXEMPLAR\USED\Etoykeys2.JPG",""
"","763","image-slider-response","432","2.0.0","595588","po16pvz0ydw","leopard","4","stimuli\EXEMPLAR\USED\Etoykeys2.JPG","","","","","","","","","","","3"
"","805","html-button-response","433","2.0.0","596393","po16pvz0ydw","leopard","1","Which of these items did you see before?","","","","","Test","","true","[""stimuli\\EXEMPLAR\\USED\\Estarfish1.jpg"",""stimuli\\EXEMPLAR\\USED\\Estarfish2.jpg""]","stimuli\EXEMPLAR\USED\Estarfish2.jpg","stimuli\EXEMPLAR\USED\Estarfish2.jpg",""
"","833","image-slider-response","434","2.0.0","597227","po16pvz0ydw","leopard","5","stimuli\EXEMPLAR\USED\Estarfish2.jpg","","","","","","","","","","","3"
"","1635","html-button-response","435","2.0.0","598862","po16pvz0ydw","leopard","1","Which of these items did you see before?","","","","","Test","","true","[""stimuli\\STATE\\USED\\Sdresser1.jpg"",""stimuli\\STATE\\USED\\Sdresser2.jpg""]","stimuli\STATE\USED\Sdresser2.jpg","stimuli\STATE\USED\Sdresser2.jpg",""
"","731","image-slider-response","436","2.0.0","599594","po16pvz0ydw","leopard","4","stimuli\STATE\USED\Sdresser2.jpg","","","","","","","","","","","3"
"","1700","html-button-response","437","2.0.0","601294","po16pvz0ydw","leopard","1","Which of these items did you see before?","","","","","Test","","true","[""stimuli\\STATE\\USED\\Slaptop2.JPG"",""stimuli\\STATE\\USED\\Slaptop1.JPG""]","stimuli\STATE\USED\Slaptop1.JPG","stimuli\STATE\USED\Slaptop1.JPG",""
"","688","image-slider-response","438","2.0.0","601983","po16pvz0ydw","leopard","2","stimuli\STATE\USED\Slaptop1.JPG","","","","","","","","","","","3"
"","1091","html-button-response","439","2.0.0","603075","po16pvz0ydw","leopard","0","Which of these items did you see before?","","","","","Test","","true","[""stimuli\\EXEMPLAR\\USED\\Eglobe2.jpg"",""stimuli\\EXEMPLAR\\USED\\Eglobe1.jpg""]","stimuli\EXEMPLAR\USED\Eglobe2.jpg","stimuli\EXEMPLAR\USED\Eglobe2.jpg",""
"","1427","image-slider-response","440","2.0.0","604503","po16pvz0ydw","leopard","3","stimuli\EXEMPLAR\USED\Eglobe2.jpg","","","","","","","","","","","3"
"","2936","html-button-response","441","2.0.0","607440","po16pvz0ydw","leopard","1","Which of these items did you see before?","","","","","Test","","false","[""stimuli\\STATE\\USED\\Sjuiceglass1.JPG"",""stimuli\\STATE\\USED\\Sjuiceglass2.JPG""]","stimuli\STATE\USED\Sjuiceglass1.JPG","stimuli\STATE\USED\Sjuiceglass2.JPG",""
"","886","image-slider-response","442","2.0.0","608327","po16pvz0ydw","leopard","3","stimuli\STATE\USED\Sjuiceglass2.JPG","","","","","","","","","","","3"
"","2907","html-button-response","443","2.0.0","611235","po16pvz0ydw","leopard","1","Which of these items did you see before?","","","","","Test","","true","[""stimuli\\STATE\\USED\\Scateringtray2.jpg"",""stimuli\\STATE\\USED\\Scateringtray1.jpg""]","stimuli\STATE\USED\Scateringtray1.jpg","stimuli\STATE\USED\Scateringtray1.jpg",""
"","1053","image-slider-response","444","2.0.0","612288","po16pvz0ydw","leopard","2","stimuli\STATE\USED\Scateringtray1.jpg","","","","","","","","","","","3"
"","2860","html-button-response","445","2.0.0","615149","po16pvz0ydw","leopard","1","Which of these items did you see before?","","","","","Test","","true","[""stimuli\\EXEMPLAR\\USED\\Ewineglass1.jpg"",""stimuli\\EXEMPLAR\\USED\\Ewineglass2.jpg""]","stimuli\EXEMPLAR\USED\Ewineglass2.jpg","stimuli\EXEMPLAR\USED\Ewineglass2.jpg",""
"","1695","image-slider-response","446","2.0.0","616845","po16pvz0ydw","leopard","3","stimuli\EXEMPLAR\USED\Ewineglass2.jpg","","","","","","","","","","","3"
"","1368","html-button-response","447","2.0.0","618213","po16pvz0ydw","leopard","1","Which of these items did you see before?","","","","","Test","","true","[""stimuli\\STATE\\USED\\Sumbrella1.jpg"",""stimuli\\STATE\\USED\\Sumbrella2.jpg""]","stimuli\STATE\USED\Sumbrella2.jpg","stimuli\STATE\USED\Sumbrella2.jpg",""
"","1600","image-slider-response","448","2.0.0","619814","po16pvz0ydw","leopard","4","stimuli\STATE\USED\Sumbrella2.jpg","","","","","","","","","","","3"
"","26646","survey-text","449","2.0.0","646465","po16pvz0ydw","leopard","{""experiment_purpose"":""If things you use more often are easier to remember"",""Q1"":""Color and utility "",""technical_issues"":""""}","","","","","","","","","","","",""
