"success","rt","trial_type","trial_index","plugin_version","time_elapsed","random_id","participant","response","stimulus","timeout","failed_images","failed_audio","failed_video","trial_phase","repeated","correct","choice_images","correct_image","choice","slider_start"
"true","1514243","fullscreen","0","2.0.0","2794807","ppj3b623m4f","eagle","","","","","","","","","","","","",""
"","4378","survey-text","1","2.0.0","2799189","ppj3b623m4f","eagle","{""participant_id"":""eagle""}","","","","","","","","","","","",""
"","1399","html-keyboard-response","2","2.0.0","2800591","ppj3b623m4f","eagle","ArrowRight","<p>Welcome to the Massive Memory Experiment. Press any key to move on. </p>","","","","","","","","","","",""
"","27154","html-keyboard-response","3","2.0.0","2827745","ppj3b623m4f","eagle"," ","
      <div style='width:900px;margin: auto;'><p>In the first section you will see a stream of images, with fixation crosses in between each image.</p>
      <p>Each image will remain on screen for 2 seconds. Your job is to detect images that you have seen before within the experiment. Whenever you see an image that you have seen previously <b>at any point in the stream of images</b>, press the spacebar.</p>
      <p>We will let you know if you have correctly or falsely clicked the spacebar on an image by changing the color of the fixation cross.</p>
      <p>If you press the spacebar correctly (the image really did appear earlier), the fixation cross will turn green. If you pressed the spacebar incorrectly, the fixation cross will turn red.</p>
      <p>Please watch carefully to detect the images that show up again!</p>
      <p>Press any key to start.</p></div>
    ","","","","","","","","","","",""
"true","","preload","4","2.0.0","2829573","ppj3b623m4f","eagle","","","false","[]","[]","[]","","","","","","",""
"","null","image-keyboard-response","5","2.0.0","2831576","ppj3b623m4f","eagle","null","stimuli\STATE\USED\Sdoughhands1.jpg","","","","","Memory","false","null","","","",""
"","null","html-keyboard-response","6","2.0.0","2832080","ppj3b623m4f","eagle","null","<div style=""font-size:60px; color: black;"">+</div>","","","","","","","","","","",""
"","null","image-keyboard-response","7","2.0.0","2834091","ppj3b623m4f","eagle","null","stimuli\EXEMPLAR\USED\Eladder2.jpg","","","","","Memory","false","null","","","",""
"","null","html-keyboard-response","8","2.0.0","2834593","ppj3b623m4f","eagle","null","<div style=""font-size:60px; color: black;"">+</div>","","","","","","","","","","",""
"","null","image-keyboard-response","9","2.0.0","2836596","ppj3b623m4f","eagle","null","stimuli\STATE\USED\Spicnicbasket2.jpg","","","","","Memory","false","null","","","",""
"","null","html-keyboard-response","10","2.0.0","2837098","ppj3b623m4f","eagle","null","<div style=""font-size:60px; color: black;"">+</div>","","","","","","","","","","",""
"","null","image-keyboard-response","11","2.0.0","2839102","ppj3b623m4f","eagle","null","stimuli\EXEMPLAR\USED\Earch2.jpg","","","","","Memory","false","null","","","",""
"","null","html-keyboard-response","12","2.0.0","2839604","ppj3b623m4f","eagle","null","<div style=""font-size:60px; color: black;"">+</div>","","","","","","","","","","",""
"","610","image-keyboard-response","13","2.0.0","2841607","ppj3b623m4f","eagle"," ","stimuli\STATE\USED\Sdoughhands1.jpg","","","","","Memory","true","true","","","",""
"","null","html-keyboard-response","14","2.0.0","2842110","ppj3b623m4f","eagle","null","<div style=""font-size:60px; color: green;"">+</div>","","","","","","","","","","",""
"","null","image-keyboard-response","15","2.0.0","2844113","ppj3b623m4f","eagle","null","stimuli\EXEMPLAR\USED\Econe1.jpg","","","","","Memory","false","null","","","",""
"","null","html-keyboard-response","16","2.0.0","2844617","ppj3b623m4f","eagle","null","<div style=""font-size:60px; color: black;"">+</div>","","","","","","","","","","",""
"","null","image-keyboard-response","17","2.0.0","2846620","ppj3b623m4f","eagle","null","stimuli\EXEMPLAR\USED\Eremover1.jpg","","","","","Memory","false","null","","","",""
"","null","html-keyboard-response","18","2.0.0","2847122","ppj3b623m4f","eagle","null","<div style=""font-size:60px; color: black;"">+</div>","","","","","","","","","","",""
"","null","image-keyboard-response","19","2.0.0","2849125","ppj3b623m4f","eagle","null","stimuli\EXEMPLAR\USED\Enozzle1.jpg","","","","","Memory","false","null","","","",""
"","null","html-keyboard-response","20","2.0.0","2849628","ppj3b623m4f","eagle","null","<div style=""font-size:60px; color: black;"">+</div>","","","","","","","","","","",""
"","null","image-keyboard-response","21","2.0.0","2851630","ppj3b623m4f","eagle","null","stimuli\EXEMPLAR\USED\Eframe1.jpg","","","","","Memory","false","null","","","",""
"","null","html-keyboard-response","22","2.0.0","2852134","ppj3b623m4f","eagle","null","<div style=""font-size:60px; color: black;"">+</div>","","","","","","","","","","",""
"","null","image-keyboard-response","23","2.0.0","2854137","ppj3b623m4f","eagle","null","stimuli\STATE\USED\Sskull2.jpg","","","","","Memory","false","null","","","",""
"","null","html-keyboard-response","24","2.0.0","2854640","ppj3b623m4f","eagle","null","<div style=""font-size:60px; color: black;"">+</div>","","","","","","","","","","",""
"","null","image-keyboard-response","25","2.0.0","2856643","ppj3b623m4f","eagle","null","stimuli\STATE\USED\Sbook2.JPG","","","","","Memory","false","null","","","",""
"","null","html-keyboard-response","26","2.0.0","2857145","ppj3b623m4f","eagle","null","<div style=""font-size:60px; color: black;"">+</div>","","","","","","","","","","",""
"","null","image-keyboard-response","27","2.0.0","2859148","ppj3b623m4f","eagle","null","stimuli\STATE\USED\Sscanner1.JPG","","","","","Memory","false","null","","","",""
"","null","html-keyboard-response","28","2.0.0","2859651","ppj3b623m4f","eagle","null","<div style=""font-size:60px; color: black;"">+</div>","","","","","","","","","","",""
"","739","image-keyboard-response","29","2.0.0","2861654","ppj3b623m4f","eagle"," ","stimuli\EXEMPLAR\USED\Eframe1.jpg","","","","","Memory","true","true","","","",""
"","null","html-keyboard-response","30","2.0.0","2862157","ppj3b623m4f","eagle","null","<div style=""font-size:60px; color: green;"">+</div>","","","","","","","","","","",""
"","null","image-keyboard-response","31","2.0.0","2864160","ppj3b623m4f","eagle","null","stimuli\EXEMPLAR\USED\Etoyhand1.jpg","","","","","Memory","false","null","","","",""
"","null","html-keyboard-response","32","2.0.0","2864670","ppj3b623m4f","eagle","null","<div style=""font-size:60px; color: black;"">+</div>","","","","","","","","","","",""
"","null","image-keyboard-response","33","2.0.0","2866673","ppj3b623m4f","eagle","null","stimuli\EXEMPLAR\USED\Emedal1.jpg","","","","","Memory","false","null","","","",""
"","null","html-keyboard-response","34","2.0.0","2867176","ppj3b623m4f","eagle","null","<div style=""font-size:60px; color: black;"">+</div>","","","","","","","","","","",""
"","null","image-keyboard-response","35","2.0.0","2869179","ppj3b623m4f","eagle","null","stimuli\EXEMPLAR\USED\Esantahat2.jpg","","","","","Memory","false","null","","","",""
"","null","html-keyboard-response","36","2.0.0","2869682","ppj3b623m4f","eagle","null","<div style=""font-size:60px; color: black;"">+</div>","","","","","","","","","","",""
"","null","image-keyboard-response","37","2.0.0","2871686","ppj3b623m4f","eagle","null","stimuli\EXEMPLAR\USED\Epeppers2.jpg","","","","","Memory","false","null","","","",""
"","null","html-keyboard-response","38","2.0.0","2872188","ppj3b623m4f","eagle","null","<div style=""font-size:60px; color: black;"">+</div>","","","","","","","","","","",""
"","null","image-keyboard-response","39","2.0.0","2874191","ppj3b623m4f","eagle","null","stimuli\STATE\USED\Seggplant1.jpg","","","","","Memory","false","null","","","",""
"","null","html-keyboard-response","40","2.0.0","2874694","ppj3b623m4f","eagle","null","<div style=""font-size:60px; color: black;"">+</div>","","","","","","","","","","",""
"","null","image-keyboard-response","41","2.0.0","2876698","ppj3b623m4f","eagle","null","stimuli\STATE\USED\Shandshake2.JPG","","","","","Memory","false","null","","","",""
"","null","html-keyboard-response","42","2.0.0","2877201","ppj3b623m4f","eagle","null","<div style=""font-size:60px; color: black;"">+</div>","","","","","","","","","","",""
"","null","image-keyboard-response","43","2.0.0","2879205","ppj3b623m4f","eagle","null","stimuli\EXEMPLAR\USED\Eplate1.jpg","","","","","Memory","false","null","","","",""
"","null","html-keyboard-response","44","2.0.0","2879707","ppj3b623m4f","eagle","null","<div style=""font-size:60px; color: black;"">+</div>","","","","","","","","","","",""
"","null","image-keyboard-response","45","2.0.0","2881711","ppj3b623m4f","eagle","null","stimuli\STATE\USED\Sdrum1.jpg","","","","","Memory","false","null","","","",""
"","null","html-keyboard-response","46","2.0.0","2882213","ppj3b623m4f","eagle","null","<div style=""font-size:60px; color: black;"">+</div>","","","","","","","","","","",""
"","null","image-keyboard-response","47","2.0.0","2884216","ppj3b623m4f","eagle","null","stimuli\EXEMPLAR\USED\Ehotairballoon1.jpg","","","","","Memory","false","null","","","",""
"","null","html-keyboard-response","48","2.0.0","2884719","ppj3b623m4f","eagle","null","<div style=""font-size:60px; color: black;"">+</div>","","","","","","","","","","",""
"","null","image-keyboard-response","49","2.0.0","2886722","ppj3b623m4f","eagle","null","stimuli\STATE\USED\Ssweater1.jpg","","","","","Memory","false","null","","","",""
"","null","html-keyboard-response","50","2.0.0","2887225","ppj3b623m4f","eagle","null","<div style=""font-size:60px; color: black;"">+</div>","","","","","","","","","","",""
"","801","image-keyboard-response","51","2.0.0","2889228","ppj3b623m4f","eagle"," ","stimuli\EXEMPLAR\USED\Eplate1.jpg","","","","","Memory","true","true","","","",""
"","null","html-keyboard-response","52","2.0.0","2889731","ppj3b623m4f","eagle","null","<div style=""font-size:60px; color: green;"">+</div>","","","","","","","","","","",""
"","null","image-keyboard-response","53","2.0.0","2891735","ppj3b623m4f","eagle","null","stimuli\STATE\USED\Siron1.jpg","","","","","Memory","false","null","","","",""
"","null","html-keyboard-response","54","2.0.0","2892238","ppj3b623m4f","eagle","null","<div style=""font-size:60px; color: black;"">+</div>","","","","","","","","","","",""
"","null","image-keyboard-response","55","2.0.0","2894242","ppj3b623m4f","eagle","null","stimuli\EXEMPLAR\USED\Etongs2.jpg","","","","","Memory","false","null","","","",""
"","null","html-keyboard-response","56","2.0.0","2894745","ppj3b623m4f","eagle","null","<div style=""font-size:60px; color: black;"">+</div>","","","","","","","","","","",""
"","null","image-keyboard-response","57","2.0.0","2896748","ppj3b623m4f","eagle","null","stimuli\STATE\USED\Sdishes2.JPG","","","","","Memory","false","null","","","",""
"","null","html-keyboard-response","58","2.0.0","2897251","ppj3b623m4f","eagle","null","<div style=""font-size:60px; color: black;"">+</div>","","","","","","","","","","",""
"","null","image-keyboard-response","59","2.0.0","2899254","ppj3b623m4f","eagle","null","stimuli\STATE\USED\Scateringtray1.jpg","","","","","Memory","false","null","","","",""
"","null","html-keyboard-response","60","2.0.0","2899757","ppj3b623m4f","eagle","null","<div style=""font-size:60px; color: black;"">+</div>","","","","","","","","","","",""
"","null","image-keyboard-response","61","2.0.0","2901761","ppj3b623m4f","eagle","null","stimuli\EXEMPLAR\USED\Espraybottle2.jpg","","","","","Memory","false","null","","","",""
"","null","html-keyboard-response","62","2.0.0","2902264","ppj3b623m4f","eagle","null","<div style=""font-size:60px; color: black;"">+</div>","","","","","","","","","","",""
"","null","image-keyboard-response","63","2.0.0","2904268","ppj3b623m4f","eagle","null","stimuli\EXEMPLAR\USED\Emicroscope2.jpg","","","","","Memory","false","null","","","",""
"","null","html-keyboard-response","64","2.0.0","2904771","ppj3b623m4f","eagle","null","<div style=""font-size:60px; color: black;"">+</div>","","","","","","","","","","",""
"","null","image-keyboard-response","65","2.0.0","2906774","ppj3b623m4f","eagle","null","stimuli\EXEMPLAR\USED\Ebracelet2.jpg","","","","","Memory","false","null","","","",""
"","null","html-keyboard-response","66","2.0.0","2907276","ppj3b623m4f","eagle","null","<div style=""font-size:60px; color: black;"">+</div>","","","","","","","","","","",""
"","null","image-keyboard-response","67","2.0.0","2909280","ppj3b623m4f","eagle","null","stimuli\EXEMPLAR\USED\Eicecream1.jpg","","","","","Memory","false","null","","","",""
"","null","html-keyboard-response","68","2.0.0","2909783","ppj3b623m4f","eagle","null","<div style=""font-size:60px; color: black;"">+</div>","","","","","","","","","","",""
"","null","image-keyboard-response","69","2.0.0","2911787","ppj3b623m4f","eagle","null","stimuli\STATE\USED\Sphoneold2.jpg","","","","","Memory","false","null","","","",""
"","null","html-keyboard-response","70","2.0.0","2912290","ppj3b623m4f","eagle","null","<div style=""font-size:60px; color: black;"">+</div>","","","","","","","","","","",""
"","null","image-keyboard-response","71","2.0.0","2914294","ppj3b623m4f","eagle","null","stimuli\STATE\USED\Scooker1.jpg","","","","","Memory","false","null","","","",""
"","null","html-keyboard-response","72","2.0.0","2914796","ppj3b623m4f","eagle","null","<div style=""font-size:60px; color: black;"">+</div>","","","","","","","","","","",""
"","null","image-keyboard-response","73","2.0.0","2916800","ppj3b623m4f","eagle","null","stimuli\EXEMPLAR\USED\Etoykeys2.JPG","","","","","Memory","false","null","","","",""
"","null","html-keyboard-response","74","2.0.0","2917303","ppj3b623m4f","eagle","null","<div style=""font-size:60px; color: black;"">+</div>","","","","","","","","","","",""
"","690","image-keyboard-response","75","2.0.0","2919307","ppj3b623m4f","eagle"," ","stimuli\EXEMPLAR\USED\Eicecream1.jpg","","","","","Memory","true","true","","","",""
"","null","html-keyboard-response","76","2.0.0","2919810","ppj3b623m4f","eagle","null","<div style=""font-size:60px; color: green;"">+</div>","","","","","","","","","","",""
"","null","image-keyboard-response","77","2.0.0","2921814","ppj3b623m4f","eagle","null","stimuli\EXEMPLAR\USED\Ehoe1.jpg","","","","","Memory","false","null","","","",""
"","null","html-keyboard-response","78","2.0.0","2922316","ppj3b623m4f","eagle","null","<div style=""font-size:60px; color: black;"">+</div>","","","","","","","","","","",""
"","null","image-keyboard-response","79","2.0.0","2924320","ppj3b623m4f","eagle","null","stimuli\STATE\USED\Sdie1.jpg","","","","","Memory","false","null","","","",""
"","null","html-keyboard-response","80","2.0.0","2924824","ppj3b623m4f","eagle","null","<div style=""font-size:60px; color: black;"">+</div>","","","","","","","","","","",""
"","null","image-keyboard-response","81","2.0.0","2926828","ppj3b623m4f","eagle","null","stimuli\EXEMPLAR\USED\Eremote1.jpg","","","","","Memory","false","null","","","",""
"","null","html-keyboard-response","82","2.0.0","2927331","ppj3b623m4f","eagle","null","<div style=""font-size:60px; color: black;"">+</div>","","","","","","","","","","",""
"","null","image-keyboard-response","83","2.0.0","2929333","ppj3b623m4f","eagle","null","stimuli\STATE\USED\Slaptop1.JPG","","","","","Memory","false","null","","","",""
"","null","html-keyboard-response","84","2.0.0","2929835","ppj3b623m4f","eagle","null","<div style=""font-size:60px; color: black;"">+</div>","","","","","","","","","","",""
"","null","image-keyboard-response","85","2.0.0","2931839","ppj3b623m4f","eagle","null","stimuli\EXEMPLAR\USED\Epiano1.jpg","","","","","Memory","false","null","","","",""
"","null","html-keyboard-response","86","2.0.0","2932342","ppj3b623m4f","eagle","null","<div style=""font-size:60px; color: black;"">+</div>","","","","","","","","","","",""
"","705","image-keyboard-response","87","2.0.0","2934346","ppj3b623m4f","eagle"," ","stimuli\STATE\USED\Sdie1.jpg","","","","","Memory","true","true","","","",""
"","null","html-keyboard-response","88","2.0.0","2934849","ppj3b623m4f","eagle","null","<div style=""font-size:60px; color: green;"">+</div>","","","","","","","","","","",""
"","null","image-keyboard-response","89","2.0.0","2936852","ppj3b623m4f","eagle","null","stimuli\STATE\USED\Sdishwasher2.jpg","","","","","Memory","false","null","","","",""
"","null","html-keyboard-response","90","2.0.0","2937355","ppj3b623m4f","eagle","null","<div style=""font-size:60px; color: black;"">+</div>","","","","","","","","","","",""
"","null","image-keyboard-response","91","2.0.0","2939358","ppj3b623m4f","eagle","null","stimuli\STATE\USED\Sgrinder1.jpg","","","","","Memory","false","null","","","",""
"","null","html-keyboard-response","92","2.0.0","2939861","ppj3b623m4f","eagle","null","<div style=""font-size:60px; color: black;"">+</div>","","","","","","","","","","",""
"","null","image-keyboard-response","93","2.0.0","2941864","ppj3b623m4f","eagle","null","stimuli\STATE\USED\Srainbowslice2.jpg","","","","","Memory","false","null","","","",""
"","null","html-keyboard-response","94","2.0.0","2942368","ppj3b623m4f","eagle","null","<div style=""font-size:60px; color: black;"">+</div>","","","","","","","","","","",""
"","null","image-keyboard-response","95","2.0.0","2944371","ppj3b623m4f","eagle","null","stimuli\STATE\USED\Sbarnmailbox1.jpg","","","","","Memory","false","null","","","",""
"","null","html-keyboard-response","96","2.0.0","2944873","ppj3b623m4f","eagle","null","<div style=""font-size:60px; color: black;"">+</div>","","","","","","","","","","",""
"","null","image-keyboard-response","97","2.0.0","2946878","ppj3b623m4f","eagle","null","stimuli\EXEMPLAR\USED\Etoywrench2.jpg","","","","","Memory","false","null","","","",""
"","null","html-keyboard-response","98","2.0.0","2947380","ppj3b623m4f","eagle","null","<div style=""font-size:60px; color: black;"">+</div>","","","","","","","","","","",""
"","1073","image-keyboard-response","99","2.0.0","2949383","ppj3b623m4f","eagle"," ","stimuli\STATE\USED\Sgrinder1.jpg","","","","","Memory","true","true","","","",""
"","null","html-keyboard-response","100","2.0.0","2949886","ppj3b623m4f","eagle","null","<div style=""font-size:60px; color: green;"">+</div>","","","","","","","","","","",""
"","null","image-keyboard-response","101","2.0.0","2951889","ppj3b623m4f","eagle","null","stimuli\EXEMPLAR\USED\Eelectricbass2.jpg","","","","","Memory","false","null","","","",""
"","null","html-keyboard-response","102","2.0.0","2952392","ppj3b623m4f","eagle","null","<div style=""font-size:60px; color: black;"">+</div>","","","","","","","","","","",""
"","null","image-keyboard-response","103","2.0.0","2954396","ppj3b623m4f","eagle","null","stimuli\STATE\USED\Scoffeemaker1.JPG","","","","","Memory","false","null","","","",""
"","null","html-keyboard-response","104","2.0.0","2954899","ppj3b623m4f","eagle","null","<div style=""font-size:60px; color: black;"">+</div>","","","","","","","","","","",""
"","null","image-keyboard-response","105","2.0.0","2956902","ppj3b623m4f","eagle","null","stimuli\STATE\USED\Swaffleiron1.jpg","","","","","Memory","false","null","","","",""
"","null","html-keyboard-response","106","2.0.0","2957404","ppj3b623m4f","eagle","null","<div style=""font-size:60px; color: black;"">+</div>","","","","","","","","","","",""
"","1817","html-button-response","107","2.0.0","2959224","ppj3b623m4f","eagle","0","Are you still there?","","","","","Attention Check","","","","","",""
"","null","image-keyboard-response","108","2.0.0","2961228","ppj3b623m4f","eagle","null","stimuli\STATE\USED\Shairbrush1.jpg","","","","","Memory","false","null","","","",""
"","null","html-keyboard-response","109","2.0.0","2961730","ppj3b623m4f","eagle","null","<div style=""font-size:60px; color: black;"">+</div>","","","","","","","","","","",""
"","null","image-keyboard-response","110","2.0.0","2963734","ppj3b623m4f","eagle","null","stimuli\EXEMPLAR\USED\Emitt1.jpg","","","","","Memory","false","null","","","",""
"","null","html-keyboard-response","111","2.0.0","2964236","ppj3b623m4f","eagle","null","<div style=""font-size:60px; color: black;"">+</div>","","","","","","","","","","",""
"","819","image-keyboard-response","112","2.0.0","2966246","ppj3b623m4f","eagle"," ","stimuli\STATE\USED\Scoffeemaker1.JPG","","","","","Memory","true","true","","","",""
"","null","html-keyboard-response","113","2.0.0","2966748","ppj3b623m4f","eagle","null","<div style=""font-size:60px; color: green;"">+</div>","","","","","","","","","","",""
"","null","image-keyboard-response","114","2.0.0","2968751","ppj3b623m4f","eagle","null","stimuli\STATE\USED\Schinesefoodbox1.jpg","","","","","Memory","false","null","","","",""
"","null","html-keyboard-response","115","2.0.0","2969253","ppj3b623m4f","eagle","null","<div style=""font-size:60px; color: black;"">+</div>","","","","","","","","","","",""
"","null","image-keyboard-response","116","2.0.0","2971257","ppj3b623m4f","eagle","null","stimuli\EXEMPLAR\USED\Emuffin2.jpg","","","","","Memory","false","null","","","",""
"","null","html-keyboard-response","117","2.0.0","2971759","ppj3b623m4f","eagle","null","<div style=""font-size:60px; color: black;"">+</div>","","","","","","","","","","",""
"","null","image-keyboard-response","118","2.0.0","2973763","ppj3b623m4f","eagle","null","stimuli\STATE\USED\Sflask2.jpg","","","","","Memory","false","null","","","",""
"","null","html-keyboard-response","119","2.0.0","2974266","ppj3b623m4f","eagle","null","<div style=""font-size:60px; color: black;"">+</div>","","","","","","","","","","",""
"","null","image-keyboard-response","120","2.0.0","2976270","ppj3b623m4f","eagle","null","stimuli\EXEMPLAR\USED\Ebicycle2.jpg","","","","","Memory","false","null","","","",""
"","null","html-keyboard-response","121","2.0.0","2976773","ppj3b623m4f","eagle","null","<div style=""font-size:60px; color: black;"">+</div>","","","","","","","","","","",""
"","null","image-keyboard-response","122","2.0.0","2978776","ppj3b623m4f","eagle","null","stimuli\EXEMPLAR\USED\Eheadphones2.jpg","","","","","Memory","false","null","","","",""
"","null","html-keyboard-response","123","2.0.0","2979279","ppj3b623m4f","eagle","null","<div style=""font-size:60px; color: black;"">+</div>","","","","","","","","","","",""
"","null","image-keyboard-response","124","2.0.0","2981283","ppj3b623m4f","eagle","null","stimuli\EXEMPLAR\USED\Echopsticks2.jpg","","","","","Memory","false","null","","","",""
"","null","html-keyboard-response","125","2.0.0","2981785","ppj3b623m4f","eagle","null","<div style=""font-size:60px; color: black;"">+</div>","","","","","","","","","","",""
"","null","image-keyboard-response","126","2.0.0","2983788","ppj3b623m4f","eagle","null","stimuli\EXEMPLAR\USED\Edinosaur1.jpg","","","","","Memory","false","null","","","",""
"","null","html-keyboard-response","127","2.0.0","2984291","ppj3b623m4f","eagle","null","<div style=""font-size:60px; color: black;"">+</div>","","","","","","","","","","",""
"","null","image-keyboard-response","128","2.0.0","2986295","ppj3b623m4f","eagle","null","stimuli\STATE\USED\Spotpan1.JPG","","","","","Memory","false","null","","","",""
"","null","html-keyboard-response","129","2.0.0","2986797","ppj3b623m4f","eagle","null","<div style=""font-size:60px; color: black;"">+</div>","","","","","","","","","","",""
"","808","image-keyboard-response","130","2.0.0","2988801","ppj3b623m4f","eagle"," ","stimuli\EXEMPLAR\USED\Eheadphones2.jpg","","","","","Memory","true","true","","","",""
"","null","html-keyboard-response","131","2.0.0","2989304","ppj3b623m4f","eagle","null","<div style=""font-size:60px; color: green;"">+</div>","","","","","","","","","","",""
"","null","image-keyboard-response","132","2.0.0","2991307","ppj3b623m4f","eagle","null","stimuli\STATE\USED\Sbreadslice2.jpg","","","","","Memory","false","null","","","",""
"","null","html-keyboard-response","133","2.0.0","2991810","ppj3b623m4f","eagle","null","<div style=""font-size:60px; color: black;"">+</div>","","","","","","","","","","",""
"","null","image-keyboard-response","134","2.0.0","2993813","ppj3b623m4f","eagle","null","stimuli\STATE\USED\Snapkins1.jpg","","","","","Memory","false","null","","","",""
"","null","html-keyboard-response","135","2.0.0","2994316","ppj3b623m4f","eagle","null","<div style=""font-size:60px; color: black;"">+</div>","","","","","","","","","","",""
"","null","image-keyboard-response","136","2.0.0","2996319","ppj3b623m4f","eagle","null","stimuli\STATE\USED\Sbox1.jpg","","","","","Memory","false","null","","","",""
"","null","html-keyboard-response","137","2.0.0","2996822","ppj3b623m4f","eagle","null","<div style=""font-size:60px; color: black;"">+</div>","","","","","","","","","","",""
"","null","image-keyboard-response","138","2.0.0","2998826","ppj3b623m4f","eagle","null","stimuli\STATE\USED\Shandmirror2.jpg","","","","","Memory","false","null","","","",""
"","null","html-keyboard-response","139","2.0.0","2999329","ppj3b623m4f","eagle","null","<div style=""font-size:60px; color: black;"">+</div>","","","","","","","","","","",""
"","null","image-keyboard-response","140","2.0.0","3001332","ppj3b623m4f","eagle","null","stimuli\EXEMPLAR\USED\Eguitar2.jpg","","","","","Memory","false","null","","","",""
"","null","html-keyboard-response","141","2.0.0","3001835","ppj3b623m4f","eagle","null","<div style=""font-size:60px; color: black;"">+</div>","","","","","","","","","","",""
"","null","image-keyboard-response","142","2.0.0","3003838","ppj3b623m4f","eagle","null","stimuli\EXEMPLAR\USED\Ehanger2.jpg","","","","","Memory","false","null","","","",""
"","null","html-keyboard-response","143","2.0.0","3004341","ppj3b623m4f","eagle","null","<div style=""font-size:60px; color: black;"">+</div>","","","","","","","","","","",""
"","null","image-keyboard-response","144","2.0.0","3006344","ppj3b623m4f","eagle","null","stimuli\EXEMPLAR\USED\Epliers1.jpg","","","","","Memory","false","null","","","",""
"","null","html-keyboard-response","145","2.0.0","3006848","ppj3b623m4f","eagle","null","<div style=""font-size:60px; color: black;"">+</div>","","","","","","","","","","",""
"","816","image-keyboard-response","146","2.0.0","3008851","ppj3b623m4f","eagle"," ","stimuli\STATE\USED\Shandmirror2.jpg","","","","","Memory","true","true","","","",""
"","null","html-keyboard-response","147","2.0.0","3009353","ppj3b623m4f","eagle","null","<div style=""font-size:60px; color: green;"">+</div>","","","","","","","","","","",""
"","null","image-keyboard-response","148","2.0.0","3011356","ppj3b623m4f","eagle","null","stimuli\EXEMPLAR\USED\Ebunny2.jpg","","","","","Memory","false","null","","","",""
"","null","html-keyboard-response","149","2.0.0","3011859","ppj3b623m4f","eagle","null","<div style=""font-size:60px; color: black;"">+</div>","","","","","","","","","","",""
"","null","image-keyboard-response","150","2.0.0","3013862","ppj3b623m4f","eagle","null","stimuli\STATE\USED\Stiger2.jpg","","","","","Memory","false","null","","","",""
"","null","html-keyboard-response","151","2.0.0","3014364","ppj3b623m4f","eagle","null","<div style=""font-size:60px; color: black;"">+</div>","","","","","","","","","","",""
"","null","image-keyboard-response","152","2.0.0","3016366","ppj3b623m4f","eagle","null","stimuli\STATE\USED\Sstoplight2.jpg","","","","","Memory","false","null","","","",""
"","null","html-keyboard-response","153","2.0.0","3016869","ppj3b623m4f","eagle","null","<div style=""font-size:60px; color: black;"">+</div>","","","","","","","","","","",""
"","null","image-keyboard-response","154","2.0.0","3018871","ppj3b623m4f","eagle","null","stimuli\EXEMPLAR\USED\Ecake1.jpg","","","","","Memory","false","null","","","",""
"","null","html-keyboard-response","155","2.0.0","3019374","ppj3b623m4f","eagle","null","<div style=""font-size:60px; color: black;"">+</div>","","","","","","","","","","",""
"","null","image-keyboard-response","156","2.0.0","3021377","ppj3b623m4f","eagle","null","stimuli\EXEMPLAR\USED\Efolder2.jpg","","","","","Memory","false","null","","","",""
"","null","html-keyboard-response","157","2.0.0","3021880","ppj3b623m4f","eagle","null","<div style=""font-size:60px; color: black;"">+</div>","","","","","","","","","","",""
"","null","image-keyboard-response","158","2.0.0","3023884","ppj3b623m4f","eagle","null","stimuli\STATE\USED\Sseats2.jpg","","","","","Memory","false","null","","","",""
"","null","html-keyboard-response","159","2.0.0","3024386","ppj3b623m4f","eagle","null","<div style=""font-size:60px; color: black;"">+</div>","","","","","","","","","","",""
"","null","image-keyboard-response","160","2.0.0","3026390","ppj3b623m4f","eagle","null","stimuli\STATE\USED\Sclipboard2.jpg","","","","","Memory","false","null","","","",""
"","null","html-keyboard-response","161","2.0.0","3026892","ppj3b623m4f","eagle","null","<div style=""font-size:60px; color: black;"">+</div>","","","","","","","","","","",""
"","null","image-keyboard-response","162","2.0.0","3028896","ppj3b623m4f","eagle","null","stimuli\STATE\USED\Sgiftbox2.jpg","","","","","Memory","false","null","","","",""
"","null","html-keyboard-response","163","2.0.0","3029398","ppj3b623m4f","eagle","null","<div style=""font-size:60px; color: black;"">+</div>","","","","","","","","","","",""
"","null","image-keyboard-response","164","2.0.0","3031402","ppj3b623m4f","eagle","null","stimuli\STATE\USED\Spumpkinpie1.jpg","","","","","Memory","false","null","","","",""
"","null","html-keyboard-response","165","2.0.0","3031905","ppj3b623m4f","eagle","null","<div style=""font-size:60px; color: black;"">+</div>","","","","","","","","","","",""
"","null","image-keyboard-response","166","2.0.0","3033908","ppj3b623m4f","eagle","null","stimuli\EXEMPLAR\USED\Estarfish2.jpg","","","","","Memory","false","null","","","",""
"","null","html-keyboard-response","167","2.0.0","3034411","ppj3b623m4f","eagle","null","<div style=""font-size:60px; color: black;"">+</div>","","","","","","","","","","",""
"","null","image-keyboard-response","168","2.0.0","3036415","ppj3b623m4f","eagle","null","stimuli\EXEMPLAR\USED\Eglobe2.jpg","","","","","Memory","false","null","","","",""
"","null","html-keyboard-response","169","2.0.0","3036918","ppj3b623m4f","eagle","null","<div style=""font-size:60px; color: black;"">+</div>","","","","","","","","","","",""
"","null","image-keyboard-response","170","2.0.0","3038921","ppj3b623m4f","eagle","null","stimuli\EXEMPLAR\USED\Efishbowl1.jpg","","","","","Memory","false","null","","","",""
"","null","html-keyboard-response","171","2.0.0","3039424","ppj3b623m4f","eagle","null","<div style=""font-size:60px; color: black;"">+</div>","","","","","","","","","","",""
"","null","image-keyboard-response","172","2.0.0","3041427","ppj3b623m4f","eagle","null","stimuli\STATE\USED\Saccordionsmall2.JPG","","","","","Memory","false","null","","","",""
"","null","html-keyboard-response","173","2.0.0","3041929","ppj3b623m4f","eagle","null","<div style=""font-size:60px; color: black;"">+</div>","","","","","","","","","","",""
"","null","image-keyboard-response","174","2.0.0","3043933","ppj3b623m4f","eagle","null","stimuli\EXEMPLAR\USED\Ewheelchair1.jpg","","","","","Memory","false","null","","","",""
"","null","html-keyboard-response","175","2.0.0","3044436","ppj3b623m4f","eagle","null","<div style=""font-size:60px; color: black;"">+</div>","","","","","","","","","","",""
"","null","image-keyboard-response","176","2.0.0","3046439","ppj3b623m4f","eagle","null","stimuli\EXEMPLAR\USED\Erabbit2.jpg","","","","","Memory","false","null","","","",""
"","null","html-keyboard-response","177","2.0.0","3046941","ppj3b623m4f","eagle","null","<div style=""font-size:60px; color: black;"">+</div>","","","","","","","","","","",""
"","null","image-keyboard-response","178","2.0.0","3048944","ppj3b623m4f","eagle","null","stimuli\EXEMPLAR\USED\Egame2.jpg","","","","","Memory","false","null","","","",""
"","null","html-keyboard-response","179","2.0.0","3049447","ppj3b623m4f","eagle","null","<div style=""font-size:60px; color: black;"">+</div>","","","","","","","","","","",""
"","716","image-keyboard-response","180","2.0.0","3051451","ppj3b623m4f","eagle"," ","stimuli\STATE\USED\Saccordionsmall2.JPG","","","","","Memory","true","true","","","",""
"","null","html-keyboard-response","181","2.0.0","3051953","ppj3b623m4f","eagle","null","<div style=""font-size:60px; color: green;"">+</div>","","","","","","","","","","",""
"","null","image-keyboard-response","182","2.0.0","3053957","ppj3b623m4f","eagle","null","stimuli\STATE\USED\Sseatbelt1.jpg","","","","","Memory","false","null","","","",""
"","null","html-keyboard-response","183","2.0.0","3054459","ppj3b623m4f","eagle","null","<div style=""font-size:60px; color: black;"">+</div>","","","","","","","","","","",""
"","null","image-keyboard-response","184","2.0.0","3056462","ppj3b623m4f","eagle","null","stimuli\EXEMPLAR\USED\Eturtle2.jpg","","","","","Memory","false","null","","","",""
"","null","html-keyboard-response","185","2.0.0","3056964","ppj3b623m4f","eagle","null","<div style=""font-size:60px; color: black;"">+</div>","","","","","","","","","","",""
"","null","image-keyboard-response","186","2.0.0","3058968","ppj3b623m4f","eagle","null","stimuli\STATE\USED\Sdresser2.jpg","","","","","Memory","false","null","","","",""
"","null","html-keyboard-response","187","2.0.0","3059470","ppj3b623m4f","eagle","null","<div style=""font-size:60px; color: black;"">+</div>","","","","","","","","","","",""
"","null","image-keyboard-response","188","2.0.0","3061473","ppj3b623m4f","eagle","null","stimuli\EXEMPLAR\USED\Ehorn1.jpg","","","","","Memory","false","null","","","",""
"","null","html-keyboard-response","189","2.0.0","3061976","ppj3b623m4f","eagle","null","<div style=""font-size:60px; color: black;"">+</div>","","","","","","","","","","",""
"","null","image-keyboard-response","190","2.0.0","3063980","ppj3b623m4f","eagle","null","stimuli\STATE\USED\Spestle2.jpg","","","","","Memory","false","null","","","",""
"","null","html-keyboard-response","191","2.0.0","3064482","ppj3b623m4f","eagle","null","<div style=""font-size:60px; color: black;"">+</div>","","","","","","","","","","",""
"","1076","image-keyboard-response","192","2.0.0","3066486","ppj3b623m4f","eagle"," ","stimuli\EXEMPLAR\USED\Eturtle2.jpg","","","","","Memory","true","true","","","",""
"","null","html-keyboard-response","193","2.0.0","3066988","ppj3b623m4f","eagle","null","<div style=""font-size:60px; color: green;"">+</div>","","","","","","","","","","",""
"","null","image-keyboard-response","194","2.0.0","3068990","ppj3b623m4f","eagle","null","stimuli\STATE\USED\Sgiftbag2.jpg","","","","","Memory","false","null","","","",""
"","null","html-keyboard-response","195","2.0.0","3069492","ppj3b623m4f","eagle","null","<div style=""font-size:60px; color: black;"">+</div>","","","","","","","","","","",""
"","null","image-keyboard-response","196","2.0.0","3071495","ppj3b623m4f","eagle","null","stimuli\EXEMPLAR\USED\Etractor1.jpg","","","","","Memory","false","null","","","",""
"","null","html-keyboard-response","197","2.0.0","3071998","ppj3b623m4f","eagle","null","<div style=""font-size:60px; color: black;"">+</div>","","","","","","","","","","",""
"","null","image-keyboard-response","198","2.0.0","3074002","ppj3b623m4f","eagle","null","stimuli\EXEMPLAR\USED\Ecamera1.jpg","","","","","Memory","false","null","","","",""
"","null","html-keyboard-response","199","2.0.0","3074505","ppj3b623m4f","eagle","null","<div style=""font-size:60px; color: black;"">+</div>","","","","","","","","","","",""
"","null","image-keyboard-response","200","2.0.0","3076509","ppj3b623m4f","eagle","null","stimuli\EXEMPLAR\USED\Estapler1.jpg","","","","","Memory","false","null","","","",""
"","null","html-keyboard-response","201","2.0.0","3077012","ppj3b623m4f","eagle","null","<div style=""font-size:60px; color: black;"">+</div>","","","","","","","","","","",""
"","null","image-keyboard-response","202","2.0.0","3079015","ppj3b623m4f","eagle","null","stimuli\EXEMPLAR\USED\Etrain1.jpg","","","","","Memory","false","null","","","",""
"","null","html-keyboard-response","203","2.0.0","3079517","ppj3b623m4f","eagle","null","<div style=""font-size:60px; color: black;"">+</div>","","","","","","","","","","",""
"","1585","image-keyboard-response","204","2.0.0","3081521","ppj3b623m4f","eagle"," ","stimuli\EXEMPLAR\USED\Etractor1.jpg","","","","","Memory","true","true","","","",""
"","null","html-keyboard-response","205","2.0.0","3082024","ppj3b623m4f","eagle","null","<div style=""font-size:60px; color: green;"">+</div>","","","","","","","","","","",""
"","null","image-keyboard-response","206","2.0.0","3084027","ppj3b623m4f","eagle","null","stimuli\EXEMPLAR\USED\Etrowel1.jpg","","","","","Memory","false","null","","","",""
"","null","html-keyboard-response","207","2.0.0","3084530","ppj3b623m4f","eagle","null","<div style=""font-size:60px; color: black;"">+</div>","","","","","","","","","","",""
"","null","image-keyboard-response","208","2.0.0","3086533","ppj3b623m4f","eagle","null","stimuli\EXEMPLAR\USED\Ebrick1.jpg","","","","","Memory","false","null","","","",""
"","null","html-keyboard-response","209","2.0.0","3087036","ppj3b623m4f","eagle","null","<div style=""font-size:60px; color: black;"">+</div>","","","","","","","","","","",""
"","262444","html-button-response","210","2.0.0","3349476","ppj3b623m4f","eagle","0","Are you still there?","","","","","Attention Check","","","","","",""
"","null","image-keyboard-response","211","2.0.0","3351479","ppj3b623m4f","eagle","null","stimuli\STATE\USED\Smedicaltape2.jpg","","","","","Memory","false","null","","","",""
"","null","html-keyboard-response","212","2.0.0","3351984","ppj3b623m4f","eagle","null","<div style=""font-size:60px; color: black;"">+</div>","","","","","","","","","","",""
"","null","image-keyboard-response","213","2.0.0","3353987","ppj3b623m4f","eagle","null","stimuli\STATE\USED\Sschoolbag1.JPG","","","","","Memory","false","null","","","",""
"","null","html-keyboard-response","214","2.0.0","3354490","ppj3b623m4f","eagle","null","<div style=""font-size:60px; color: black;"">+</div>","","","","","","","","","","",""
"","1002","image-keyboard-response","215","2.0.0","3356494","ppj3b623m4f","eagle"," ","stimuli\EXEMPLAR\USED\Etrowel1.jpg","","","","","Memory","true","true","","","",""
"","null","html-keyboard-response","216","2.0.0","3356997","ppj3b623m4f","eagle","null","<div style=""font-size:60px; color: green;"">+</div>","","","","","","","","","","",""
"","null","image-keyboard-response","217","2.0.0","3359000","ppj3b623m4f","eagle","null","stimuli\EXEMPLAR\USED\Emoney1.jpg","","","","","Memory","false","null","","","",""
"","null","html-keyboard-response","218","2.0.0","3359503","ppj3b623m4f","eagle","null","<div style=""font-size:60px; color: black;"">+</div>","","","","","","","","","","",""
"","null","image-keyboard-response","219","2.0.0","3361506","ppj3b623m4f","eagle","null","stimuli\EXEMPLAR\USED\Echeeses1.jpg","","","","","Memory","false","null","","","",""
"","null","html-keyboard-response","220","2.0.0","3362009","ppj3b623m4f","eagle","null","<div style=""font-size:60px; color: black;"">+</div>","","","","","","","","","","",""
"","null","image-keyboard-response","221","2.0.0","3364013","ppj3b623m4f","eagle","null","stimuli\STATE\USED\Spatiotable1.jpg","","","","","Memory","false","null","","","",""
"","null","html-keyboard-response","222","2.0.0","3364515","ppj3b623m4f","eagle","null","<div style=""font-size:60px; color: black;"">+</div>","","","","","","","","","","",""
"","null","image-keyboard-response","223","2.0.0","3366519","ppj3b623m4f","eagle","null","stimuli\STATE\USED\Sapplesredbasket1.JPG","","","","","Memory","false","null","","","",""
"","null","html-keyboard-response","224","2.0.0","3367021","ppj3b623m4f","eagle","null","<div style=""font-size:60px; color: black;"">+</div>","","","","","","","","","","",""
"","591","image-keyboard-response","225","2.0.0","3369024","ppj3b623m4f","eagle"," ","stimuli\EXEMPLAR\USED\Emoney1.jpg","","","","","Memory","true","true","","","",""
"","null","html-keyboard-response","226","2.0.0","3369527","ppj3b623m4f","eagle","null","<div style=""font-size:60px; color: green;"">+</div>","","","","","","","","","","",""
"","1536","image-keyboard-response","227","2.0.0","3371529","ppj3b623m4f","eagle"," ","stimuli\STATE\USED\Sbrie1.JPG","","","","","Memory","false","false","","","",""
"","null","html-keyboard-response","228","2.0.0","3372032","ppj3b623m4f","eagle","null","<div style=""font-size:60px; color: red;"">+</div>","","","","","","","","","","",""
"","null","image-keyboard-response","229","2.0.0","3374035","ppj3b623m4f","eagle","null","stimuli\EXEMPLAR\USED\Escroll2.jpg","","","","","Memory","false","null","","","",""
"","null","html-keyboard-response","230","2.0.0","3374538","ppj3b623m4f","eagle","null","<div style=""font-size:60px; color: black;"">+</div>","","","","","","","","","","",""
"","null","image-keyboard-response","231","2.0.0","3376541","ppj3b623m4f","eagle","null","stimuli\STATE\USED\Sboxwhite1.jpg","","","","","Memory","false","null","","","",""
"","null","html-keyboard-response","232","2.0.0","3377043","ppj3b623m4f","eagle","null","<div style=""font-size:60px; color: black;"">+</div>","","","","","","","","","","",""
"","null","image-keyboard-response","233","2.0.0","3379047","ppj3b623m4f","eagle","null","stimuli\STATE\USED\Sbelt2.jpg","","","","","Memory","false","null","","","",""
"","null","html-keyboard-response","234","2.0.0","3379550","ppj3b623m4f","eagle","null","<div style=""font-size:60px; color: black;"">+</div>","","","","","","","","","","",""
"","null","image-keyboard-response","235","2.0.0","3381553","ppj3b623m4f","eagle","null","stimuli\STATE\USED\Srhino1.jpg","","","","","Memory","false","null","","","",""
"","null","html-keyboard-response","236","2.0.0","3382056","ppj3b623m4f","eagle","null","<div style=""font-size:60px; color: black;"">+</div>","","","","","","","","","","",""
"","null","image-keyboard-response","237","2.0.0","3384059","ppj3b623m4f","eagle","null","stimuli\EXEMPLAR\USED\Echocolatebar2.jpg","","","","","Memory","false","null","","","",""
"","null","html-keyboard-response","238","2.0.0","3384561","ppj3b623m4f","eagle","null","<div style=""font-size:60px; color: black;"">+</div>","","","","","","","","","","",""
"","null","image-keyboard-response","239","2.0.0","3386565","ppj3b623m4f","eagle","null","stimuli\EXEMPLAR\USED\Elog2.jpg","","","","","Memory","false","null","","","",""
"","null","html-keyboard-response","240","2.0.0","3387067","ppj3b623m4f","eagle","null","<div style=""font-size:60px; color: black;"">+</div>","","","","","","","","","","",""
"","1202","image-keyboard-response","241","2.0.0","3389071","ppj3b623m4f","eagle"," ","stimuli\STATE\USED\Saccordion1.jpg","","","","","Memory","false","false","","","",""
"","null","html-keyboard-response","242","2.0.0","3389574","ppj3b623m4f","eagle","null","<div style=""font-size:60px; color: red;"">+</div>","","","","","","","","","","",""
"","null","image-keyboard-response","243","2.0.0","3391578","ppj3b623m4f","eagle","null","stimuli\STATE\USED\Sbureau1.JPG","","","","","Memory","false","null","","","",""
"","null","html-keyboard-response","244","2.0.0","3392080","ppj3b623m4f","eagle","null","<div style=""font-size:60px; color: black;"">+</div>","","","","","","","","","","",""
"","669","image-keyboard-response","245","2.0.0","3394084","ppj3b623m4f","eagle"," ","stimuli\EXEMPLAR\USED\Echocolatebar2.jpg","","","","","Memory","true","true","","","",""
"","null","html-keyboard-response","246","2.0.0","3394586","ppj3b623m4f","eagle","null","<div style=""font-size:60px; color: green;"">+</div>","","","","","","","","","","",""
"","null","image-keyboard-response","247","2.0.0","3396589","ppj3b623m4f","eagle","null","stimuli\EXEMPLAR\USED\Ebread1.jpg","","","","","Memory","false","null","","","",""
"","null","html-keyboard-response","248","2.0.0","3397090","ppj3b623m4f","eagle","null","<div style=""font-size:60px; color: black;"">+</div>","","","","","","","","","","",""
"","null","image-keyboard-response","249","2.0.0","3399094","ppj3b623m4f","eagle","null","stimuli\STATE\USED\Sjuiceglass2.JPG","","","","","Memory","false","null","","","",""
"","null","html-keyboard-response","250","2.0.0","3399597","ppj3b623m4f","eagle","null","<div style=""font-size:60px; color: black;"">+</div>","","","","","","","","","","",""
"","null","image-keyboard-response","251","2.0.0","3401601","ppj3b623m4f","eagle","null","stimuli\EXEMPLAR\USED\Eholepunch1.jpg","","","","","Memory","false","null","","","",""
"","null","html-keyboard-response","252","2.0.0","3402104","ppj3b623m4f","eagle","null","<div style=""font-size:60px; color: black;"">+</div>","","","","","","","","","","",""
"","null","image-keyboard-response","253","2.0.0","3404107","ppj3b623m4f","eagle","null","stimuli\EXEMPLAR\USED\Ebinoculars2.jpg","","","","","Memory","false","null","","","",""
"","null","html-keyboard-response","254","2.0.0","3404610","ppj3b623m4f","eagle","null","<div style=""font-size:60px; color: black;"">+</div>","","","","","","","","","","",""
"","null","image-keyboard-response","255","2.0.0","3406613","ppj3b623m4f","eagle","null","stimuli\STATE\USED\Sdryer2.jpg","","","","","Memory","false","null","","","",""
"","null","html-keyboard-response","256","2.0.0","3407116","ppj3b623m4f","eagle","null","<div style=""font-size:60px; color: black;"">+</div>","","","","","","","","","","",""
"","null","image-keyboard-response","257","2.0.0","3409120","ppj3b623m4f","eagle","null","stimuli\STATE\USED\Sphone2.JPG","","","","","Memory","false","null","","","",""
"","null","html-keyboard-response","258","2.0.0","3409622","ppj3b623m4f","eagle","null","<div style=""font-size:60px; color: black;"">+</div>","","","","","","","","","","",""
"","null","image-keyboard-response","259","2.0.0","3411626","ppj3b623m4f","eagle","null","stimuli\STATE\USED\Sbrushes2.jpg","","","","","Memory","false","null","","","",""
"","null","html-keyboard-response","260","2.0.0","3412129","ppj3b623m4f","eagle","null","<div style=""font-size:60px; color: black;"">+</div>","","","","","","","","","","",""
"","null","image-keyboard-response","261","2.0.0","3414132","ppj3b623m4f","eagle","null","stimuli\STATE\USED\Spie2.JPG","","","","","Memory","false","null","","","",""
"","null","html-keyboard-response","262","2.0.0","3414635","ppj3b623m4f","eagle","null","<div style=""font-size:60px; color: black;"">+</div>","","","","","","","","","","",""
"","null","image-keyboard-response","263","2.0.0","3416638","ppj3b623m4f","eagle","null","stimuli\STATE\USED\Speppers1.jpg","","","","","Memory","false","null","","","",""
"","null","html-keyboard-response","264","2.0.0","3417140","ppj3b623m4f","eagle","null","<div style=""font-size:60px; color: black;"">+</div>","","","","","","","","","","",""
"","null","image-keyboard-response","265","2.0.0","3419143","ppj3b623m4f","eagle","null","stimuli\EXEMPLAR\USED\Ekayak1.jpg","","","","","Memory","false","null","","","",""
"","null","html-keyboard-response","266","2.0.0","3419646","ppj3b623m4f","eagle","null","<div style=""font-size:60px; color: black;"">+</div>","","","","","","","","","","",""
"","722","image-keyboard-response","267","2.0.0","3421650","ppj3b623m4f","eagle"," ","stimuli\STATE\USED\Sbrushes2.jpg","","","","","Memory","true","true","","","",""
"","null","html-keyboard-response","268","2.0.0","3422152","ppj3b623m4f","eagle","null","<div style=""font-size:60px; color: green;"">+</div>","","","","","","","","","","",""
"","null","image-keyboard-response","269","2.0.0","3424156","ppj3b623m4f","eagle","null","stimuli\EXEMPLAR\USED\Emuffler2.jpg","","","","","Memory","false","null","","","",""
"","null","html-keyboard-response","270","2.0.0","3424659","ppj3b623m4f","eagle","null","<div style=""font-size:60px; color: black;"">+</div>","","","","","","","","","","",""
"","null","image-keyboard-response","271","2.0.0","3426662","ppj3b623m4f","eagle","null","stimuli\STATE\USED\Sbooks1.JPG","","","","","Memory","false","null","","","",""
"","null","html-keyboard-response","272","2.0.0","3427165","ppj3b623m4f","eagle","null","<div style=""font-size:60px; color: black;"">+</div>","","","","","","","","","","",""
"","null","image-keyboard-response","273","2.0.0","3429168","ppj3b623m4f","eagle","null","stimuli\STATE\USED\Sapple1.jpg","","","","","Memory","false","null","","","",""
"","null","html-keyboard-response","274","2.0.0","3429671","ppj3b623m4f","eagle","null","<div style=""font-size:60px; color: black;"">+</div>","","","","","","","","","","",""
"","null","image-keyboard-response","275","2.0.0","3431675","ppj3b623m4f","eagle","null","stimuli\STATE\USED\Sbabytoy2.JPG","","","","","Memory","false","null","","","",""
"","null","html-keyboard-response","276","2.0.0","3432178","ppj3b623m4f","eagle","null","<div style=""font-size:60px; color: black;"">+</div>","","","","","","","","","","",""
"","null","image-keyboard-response","277","2.0.0","3434182","ppj3b623m4f","eagle","null","stimuli\EXEMPLAR\USED\Emuffler2.jpg","","","","","Memory","true","null","","","",""
"","null","html-keyboard-response","278","2.0.0","3434685","ppj3b623m4f","eagle","null","<div style=""font-size:60px; color: black;"">+</div>","","","","","","","","","","",""
"","null","image-keyboard-response","279","2.0.0","3436688","ppj3b623m4f","eagle","null","stimuli\EXEMPLAR\USED\Edispenser1.jpg","","","","","Memory","false","null","","","",""
"","null","html-keyboard-response","280","2.0.0","3437190","ppj3b623m4f","eagle","null","<div style=""font-size:60px; color: black;"">+</div>","","","","","","","","","","",""
"","null","image-keyboard-response","281","2.0.0","3439194","ppj3b623m4f","eagle","null","stimuli\STATE\USED\Sredcabbage2.jpg","","","","","Memory","false","null","","","",""
"","null","html-keyboard-response","282","2.0.0","3439697","ppj3b623m4f","eagle","null","<div style=""font-size:60px; color: black;"">+</div>","","","","","","","","","","",""
"","null","image-keyboard-response","283","2.0.0","3441701","ppj3b623m4f","eagle","null","stimuli\EXEMPLAR\USED\Epotatochips2.jpg","","","","","Memory","false","null","","","",""
"","null","html-keyboard-response","284","2.0.0","3442203","ppj3b623m4f","eagle","null","<div style=""font-size:60px; color: black;"">+</div>","","","","","","","","","","",""
"","null","image-keyboard-response","285","2.0.0","3444207","ppj3b623m4f","eagle","null","stimuli\STATE\USED\Spiggybank1.jpg","","","","","Memory","false","null","","","",""
"","null","html-keyboard-response","286","2.0.0","3444709","ppj3b623m4f","eagle","null","<div style=""font-size:60px; color: black;"">+</div>","","","","","","","","","","",""
"","947","image-keyboard-response","287","2.0.0","3446713","ppj3b623m4f","eagle"," ","stimuli\EXEMPLAR\USED\Edispenser1.jpg","","","","","Memory","true","true","","","",""
"","null","html-keyboard-response","288","2.0.0","3447215","ppj3b623m4f","eagle","null","<div style=""font-size:60px; color: green;"">+</div>","","","","","","","","","","",""
"","null","image-keyboard-response","289","2.0.0","3449219","ppj3b623m4f","eagle","null","stimuli\EXEMPLAR\USED\Esuitcase1.jpg","","","","","Memory","false","null","","","",""
"","null","html-keyboard-response","290","2.0.0","3449722","ppj3b623m4f","eagle","null","<div style=""font-size:60px; color: black;"">+</div>","","","","","","","","","","",""
"","null","image-keyboard-response","291","2.0.0","3451725","ppj3b623m4f","eagle","null","stimuli\EXEMPLAR\USED\Erazor1.jpg","","","","","Memory","false","null","","","",""
"","null","html-keyboard-response","292","2.0.0","3452228","ppj3b623m4f","eagle","null","<div style=""font-size:60px; color: black;"">+</div>","","","","","","","","","","",""
"","null","image-keyboard-response","293","2.0.0","3454232","ppj3b623m4f","eagle","null","stimuli\EXEMPLAR\USED\Etoyplane2.jpg","","","","","Memory","false","null","","","",""
"","null","html-keyboard-response","294","2.0.0","3454735","ppj3b623m4f","eagle","null","<div style=""font-size:60px; color: black;"">+</div>","","","","","","","","","","",""
"","null","image-keyboard-response","295","2.0.0","3456738","ppj3b623m4f","eagle","null","stimuli\EXEMPLAR\USED\Eteapot2.JPG","","","","","Memory","false","null","","","",""
"","null","html-keyboard-response","296","2.0.0","3457241","ppj3b623m4f","eagle","null","<div style=""font-size:60px; color: black;"">+</div>","","","","","","","","","","",""
"","null","image-keyboard-response","297","2.0.0","3459244","ppj3b623m4f","eagle","null","stimuli\EXEMPLAR\USED\Etrophy1.jpg","","","","","Memory","false","null","","","",""
"","null","html-keyboard-response","298","2.0.0","3459747","ppj3b623m4f","eagle","null","<div style=""font-size:60px; color: black;"">+</div>","","","","","","","","","","",""
"","null","image-keyboard-response","299","2.0.0","3461751","ppj3b623m4f","eagle","null","stimuli\STATE\USED\Smetronome1.jpg","","","","","Memory","false","null","","","",""
"","null","html-keyboard-response","300","2.0.0","3462253","ppj3b623m4f","eagle","null","<div style=""font-size:60px; color: black;"">+</div>","","","","","","","","","","",""
"","null","image-keyboard-response","301","2.0.0","3464256","ppj3b623m4f","eagle","null","stimuli\STATE\USED\Sscissors2.JPG","","","","","Memory","false","null","","","",""
"","null","html-keyboard-response","302","2.0.0","3464758","ppj3b623m4f","eagle","null","<div style=""font-size:60px; color: black;"">+</div>","","","","","","","","","","",""
"","null","image-keyboard-response","303","2.0.0","3466762","ppj3b623m4f","eagle","null","stimuli\STATE\USED\Slockbox2.jpg","","","","","Memory","false","null","","","",""
"","null","html-keyboard-response","304","2.0.0","3467264","ppj3b623m4f","eagle","null","<div style=""font-size:60px; color: black;"">+</div>","","","","","","","","","","",""
"","null","image-keyboard-response","305","2.0.0","3469268","ppj3b623m4f","eagle","null","stimuli\EXEMPLAR\USED\Ebell2.jpg","","","","","Memory","false","null","","","",""
"","null","html-keyboard-response","306","2.0.0","3469771","ppj3b623m4f","eagle","null","<div style=""font-size:60px; color: black;"">+</div>","","","","","","","","","","",""
"","null","image-keyboard-response","307","2.0.0","3471775","ppj3b623m4f","eagle","null","stimuli\STATE\USED\Shandsign1.JPG","","","","","Memory","false","null","","","",""
"","null","html-keyboard-response","308","2.0.0","3472278","ppj3b623m4f","eagle","null","<div style=""font-size:60px; color: black;"">+</div>","","","","","","","","","","",""
"","null","image-keyboard-response","309","2.0.0","3474282","ppj3b623m4f","eagle","null","stimuli\STATE\USED\Sumbrella1.jpg","","","","","Memory","false","null","","","",""
"","null","html-keyboard-response","310","2.0.0","3474784","ppj3b623m4f","eagle","null","<div style=""font-size:60px; color: black;"">+</div>","","","","","","","","","","",""
"","null","image-keyboard-response","311","2.0.0","3476787","ppj3b623m4f","eagle","null","stimuli\STATE\USED\Scontainer1.JPG","","","","","Memory","false","null","","","",""
"","null","html-keyboard-response","312","2.0.0","3477289","ppj3b623m4f","eagle","null","<div style=""font-size:60px; color: black;"">+</div>","","","","","","","","","","",""
"","1502","html-button-response","313","2.0.0","3478793","ppj3b623m4f","eagle","0","Are you still there?","","","","","Attention Check","","","","","",""
"","null","image-keyboard-response","314","2.0.0","3480797","ppj3b623m4f","eagle","null","stimuli\STATE\USED\Sscales1.jpg","","","","","Memory","false","null","","","",""
"","null","html-keyboard-response","315","2.0.0","3481300","ppj3b623m4f","eagle","null","<div style=""font-size:60px; color: black;"">+</div>","","","","","","","","","","",""
"","764","image-keyboard-response","316","2.0.0","3483304","ppj3b623m4f","eagle"," ","stimuli\STATE\USED\Shandsign1.JPG","","","","","Memory","true","true","","","",""
"","null","html-keyboard-response","317","2.0.0","3483807","ppj3b623m4f","eagle","null","<div style=""font-size:60px; color: green;"">+</div>","","","","","","","","","","",""
"","null","image-keyboard-response","318","2.0.0","3485810","ppj3b623m4f","eagle","null","stimuli\EXEMPLAR\USED\Eballoon2.jpg","","","","","Memory","false","null","","","",""
"","null","html-keyboard-response","319","2.0.0","3486312","ppj3b623m4f","eagle","null","<div style=""font-size:60px; color: black;"">+</div>","","","","","","","","","","",""
"","null","image-keyboard-response","320","2.0.0","3488316","ppj3b623m4f","eagle","null","stimuli\EXEMPLAR\USED\Eswimsuit1.jpg","","","","","Memory","false","null","","","",""
"","null","html-keyboard-response","321","2.0.0","3488818","ppj3b623m4f","eagle","null","<div style=""font-size:60px; color: black;"">+</div>","","","","","","","","","","",""
"","null","image-keyboard-response","322","2.0.0","3490822","ppj3b623m4f","eagle","null","stimuli\STATE\USED\Spolarbear1.jpg","","","","","Memory","false","null","","","",""
"","null","html-keyboard-response","323","2.0.0","3491324","ppj3b623m4f","eagle","null","<div style=""font-size:60px; color: black;"">+</div>","","","","","","","","","","",""
"","null","image-keyboard-response","324","2.0.0","3493327","ppj3b623m4f","eagle","null","stimuli\EXEMPLAR\USED\Ewineglass1.jpg","","","","","Memory","false","null","","","",""
"","null","html-keyboard-response","325","2.0.0","3493830","ppj3b623m4f","eagle","null","<div style=""font-size:60px; color: black;"">+</div>","","","","","","","","","","",""
"","null","image-keyboard-response","326","2.0.0","3495834","ppj3b623m4f","eagle","null","stimuli\STATE\USED\Spadlock2.jpg","","","","","Memory","false","null","","","",""
"","null","html-keyboard-response","327","2.0.0","3496337","ppj3b623m4f","eagle","null","<div style=""font-size:60px; color: black;"">+</div>","","","","","","","","","","",""
"","null","image-keyboard-response","328","2.0.0","3498340","ppj3b623m4f","eagle","null","stimuli\EXEMPLAR\USED\Ehelmet2.jpg","","","","","Memory","false","null","","","",""
"","null","html-keyboard-response","329","2.0.0","3498843","ppj3b623m4f","eagle","null","<div style=""font-size:60px; color: black;"">+</div>","","","","","","","","","","",""
"","null","image-keyboard-response","330","2.0.0","3500846","ppj3b623m4f","eagle","null","stimuli\STATE\USED\Sdonut1.jpg","","","","","Memory","false","null","","","",""
"","null","html-keyboard-response","331","2.0.0","3501348","ppj3b623m4f","eagle","null","<div style=""font-size:60px; color: black;"">+</div>","","","","","","","","","","",""
"","null","image-keyboard-response","332","2.0.0","3503352","ppj3b623m4f","eagle","null","stimuli\STATE\USED\Sapplesgreenbasket1.jpg","","","","","Memory","false","null","","","",""
"","null","html-keyboard-response","333","2.0.0","3503854","ppj3b623m4f","eagle","null","<div style=""font-size:60px; color: black;"">+</div>","","","","","","","","","","",""
"","null","image-keyboard-response","334","2.0.0","3505856","ppj3b623m4f","eagle","null","stimuli\EXEMPLAR\USED\Ebonzai2.jpg","","","","","Memory","false","null","","","",""
"","null","html-keyboard-response","335","2.0.0","3506359","ppj3b623m4f","eagle","null","<div style=""font-size:60px; color: black;"">+</div>","","","","","","","","","","",""
"","936","image-keyboard-response","336","2.0.0","3508363","ppj3b623m4f","eagle"," ","stimuli\EXEMPLAR\USED\Ehelmet2.jpg","","","","","Memory","true","true","","","",""
"","null","html-keyboard-response","337","2.0.0","3508866","ppj3b623m4f","eagle","null","<div style=""font-size:60px; color: green;"">+</div>","","","","","","","","","","",""
"","null","image-keyboard-response","338","2.0.0","3510868","ppj3b623m4f","eagle","null","stimuli\EXEMPLAR\USED\Elei2.jpg","","","","","Memory","false","null","","","",""
"","null","html-keyboard-response","339","2.0.0","3511370","ppj3b623m4f","eagle","null","<div style=""font-size:60px; color: black;"">+</div>","","","","","","","","","","",""
"","null","image-keyboard-response","340","2.0.0","3513374","ppj3b623m4f","eagle","null","stimuli\STATE\USED\Sbriefcasemetal2.JPG","","","","","Memory","false","null","","","",""
"","null","html-keyboard-response","341","2.0.0","3513876","ppj3b623m4f","eagle","null","<div style=""font-size:60px; color: black;"">+</div>","","","","","","","","","","",""
"","null","image-keyboard-response","342","2.0.0","3515879","ppj3b623m4f","eagle","null","stimuli\EXEMPLAR\USED\Ecalculator2.jpg","","","","","Memory","false","null","","","",""
"","null","html-keyboard-response","343","2.0.0","3516382","ppj3b623m4f","eagle","null","<div style=""font-size:60px; color: black;"">+</div>","","","","","","","","","","",""
"","null","image-keyboard-response","344","2.0.0","3518386","ppj3b623m4f","eagle","null","stimuli\EXEMPLAR\USED\Esunglasses1.jpg","","","","","Memory","false","null","","","",""
"","null","html-keyboard-response","345","2.0.0","3518889","ppj3b623m4f","eagle","null","<div style=""font-size:60px; color: black;"">+</div>","","","","","","","","","","",""
"","null","image-keyboard-response","346","2.0.0","3520892","ppj3b623m4f","eagle","null","stimuli\STATE\USED\Stypewriter2.jpg","","","","","Memory","false","null","","","",""
"","null","html-keyboard-response","347","2.0.0","3521395","ppj3b623m4f","eagle","null","<div style=""font-size:60px; color: black;"">+</div>","","","","","","","","","","",""
"","12426","html-keyboard-response","348","2.0.0","3533823","ppj3b623m4f","eagle"," ","
          <p>In the next part of this experiment, you will see 2 images. Please select the image that you recall from the image stream.</p>
          <p>You will also rate your confidence for each image you recall.</p>
          <p>Press any key to start.</p>
        ","","","","","","","","","","",""
"","3850","html-button-response","349","2.0.0","3537674","ppj3b623m4f","eagle","0","Which of these items did you see before?","","","","","Test","","true","[""stimuli\\EXEMPLAR\\USED\\Efolder2.jpg"",""stimuli\\EXEMPLAR\\USED\\Efolder1.jpg""]","stimuli\EXEMPLAR\USED\Efolder2.jpg","stimuli\EXEMPLAR\USED\Efolder2.jpg",""
"","10248","image-slider-response","350","2.0.0","3547927","ppj3b623m4f","eagle","3","stimuli\EXEMPLAR\USED\Efolder2.jpg","","","","","","","","","","","3"
"","1481","html-button-response","351","2.0.0","3549410","ppj3b623m4f","eagle","0","Which of these items did you see before?","","","","","Test","","true","[""stimuli\\STATE\\USED\\Seggplant1.jpg"",""stimuli\\STATE\\USED\\Seggplant2.jpg""]","stimuli\STATE\USED\Seggplant1.jpg","stimuli\STATE\USED\Seggplant1.jpg",""
"","1897","image-slider-response","352","2.0.0","3551310","ppj3b623m4f","eagle","5","stimuli\STATE\USED\Seggplant1.jpg","","","","","","","","","","","3"
"","1314","html-button-response","353","2.0.0","3552626","ppj3b623m4f","eagle","0","Which of these items did you see before?","","","","","Test","","true","[""stimuli\\STATE\\USED\\Sdonut1.jpg"",""stimuli\\STATE\\USED\\Sdonut2.jpg""]","stimuli\STATE\USED\Sdonut1.jpg","stimuli\STATE\USED\Sdonut1.jpg",""
"","2047","image-slider-response","354","2.0.0","3554676","ppj3b623m4f","eagle","5","stimuli\STATE\USED\Sdonut1.jpg","","","","","","","","","","","3"
"","1298","html-button-response","355","2.0.0","3555976","ppj3b623m4f","eagle","1","Which of these items did you see before?","","","","","Test","","true","[""stimuli\\EXEMPLAR\\USED\\Eplate2.jpg"",""stimuli\\EXEMPLAR\\USED\\Eplate1.jpg""]","stimuli\EXEMPLAR\USED\Eplate1.jpg","stimuli\EXEMPLAR\USED\Eplate1.jpg",""
"","1481","image-slider-response","356","2.0.0","3557460","ppj3b623m4f","eagle","5","stimuli\EXEMPLAR\USED\Eplate1.jpg","","","","","","","","","","","3"
"","2447","html-button-response","357","2.0.0","3559909","ppj3b623m4f","eagle","1","Which of these items did you see before?","","","","","Test","","true","[""stimuli\\EXEMPLAR\\USED\\Etoywrench1.jpg"",""stimuli\\EXEMPLAR\\USED\\Etoywrench2.jpg""]","stimuli\EXEMPLAR\USED\Etoywrench2.jpg","stimuli\EXEMPLAR\USED\Etoywrench2.jpg",""
"","3448","image-slider-response","358","2.0.0","3563360","ppj3b623m4f","eagle","3","stimuli\EXEMPLAR\USED\Etoywrench2.jpg","","","","","","","","","","","3"
"","1731","html-button-response","359","2.0.0","3565093","ppj3b623m4f","eagle","1","Which of these items did you see before?","","","","","Test","","true","[""stimuli\\STATE\\USED\\Sseatbelt2.jpg"",""stimuli\\STATE\\USED\\Sseatbelt1.jpg""]","stimuli\STATE\USED\Sseatbelt1.jpg","stimuli\STATE\USED\Sseatbelt1.jpg",""
"","3930","image-slider-response","360","2.0.0","3569026","ppj3b623m4f","eagle","3","stimuli\STATE\USED\Sseatbelt1.jpg","","","","","","","","","","","3"
"","1285","html-button-response","361","2.0.0","3570313","ppj3b623m4f","eagle","0","Which of these items did you see before?","","","","","Test","","true","[""stimuli\\EXEMPLAR\\USED\\Eswimsuit1.jpg"",""stimuli\\EXEMPLAR\\USED\\Eswimsuit2.jpg""]","stimuli\EXEMPLAR\USED\Eswimsuit1.jpg","stimuli\EXEMPLAR\USED\Eswimsuit1.jpg",""
"","2610","image-slider-response","362","2.0.0","3572924","ppj3b623m4f","eagle","4","stimuli\EXEMPLAR\USED\Eswimsuit1.jpg","","","","","","","","","","","3"
"","2117","html-button-response","363","2.0.0","3575042","ppj3b623m4f","eagle","1","Which of these items did you see before?","","","","","Test","","true","[""stimuli\\EXEMPLAR\\USED\\Efishbowl2.jpg"",""stimuli\\EXEMPLAR\\USED\\Efishbowl1.jpg""]","stimuli\EXEMPLAR\USED\Efishbowl1.jpg","stimuli\EXEMPLAR\USED\Efishbowl1.jpg",""
"","1932","image-slider-response","364","2.0.0","3576977","ppj3b623m4f","eagle","2","stimuli\EXEMPLAR\USED\Efishbowl1.jpg","","","","","","","","","","","3"
"","2464","html-button-response","365","2.0.0","3579443","ppj3b623m4f","eagle","1","Which of these items did you see before?","","","","","Test","","true","[""stimuli\\STATE\\USED\\Slaptop2.JPG"",""stimuli\\STATE\\USED\\Slaptop1.JPG""]","stimuli\STATE\USED\Slaptop1.JPG","stimuli\STATE\USED\Slaptop1.JPG",""
"","3681","image-slider-response","366","2.0.0","3583127","ppj3b623m4f","eagle","1","stimuli\STATE\USED\Slaptop1.JPG","","","","","","","","","","","3"
"","981","html-button-response","367","2.0.0","3584110","ppj3b623m4f","eagle","1","Which of these items did you see before?","","","","","Test","","true","[""stimuli\\STATE\\USED\\Spadlock1.jpg"",""stimuli\\STATE\\USED\\Spadlock2.jpg""]","stimuli\STATE\USED\Spadlock2.jpg","stimuli\STATE\USED\Spadlock2.jpg",""
"","1731","image-slider-response","368","2.0.0","3585843","ppj3b623m4f","eagle","4","stimuli\STATE\USED\Spadlock2.jpg","","","","","","","","","","","3"
"","1366","html-button-response","369","2.0.0","3587211","ppj3b623m4f","eagle","1","Which of these items did you see before?","","","","","Test","","true","[""stimuli\\STATE\\USED\\Spiggybank2.jpg"",""stimuli\\STATE\\USED\\Spiggybank1.jpg""]","stimuli\STATE\USED\Spiggybank1.jpg","stimuli\STATE\USED\Spiggybank1.jpg",""
"","2697","image-slider-response","370","2.0.0","3589910","ppj3b623m4f","eagle","3","stimuli\STATE\USED\Spiggybank1.jpg","","","","","","","","","","","3"
"","1065","html-button-response","371","2.0.0","3590976","ppj3b623m4f","eagle","1","Which of these items did you see before?","","","","","Test","","true","[""stimuli\\STATE\\USED\\Sumbrella2.jpg"",""stimuli\\STATE\\USED\\Sumbrella1.jpg""]","stimuli\STATE\USED\Sumbrella1.jpg","stimuli\STATE\USED\Sumbrella1.jpg",""
"","2964","image-slider-response","372","2.0.0","3593943","ppj3b623m4f","eagle","3","stimuli\STATE\USED\Sumbrella1.jpg","","","","","","","","","","","3"
"","5232","html-button-response","373","2.0.0","3599177","ppj3b623m4f","eagle","1","Which of these items did you see before?","","","","","Test","","true","[""stimuli\\STATE\\USED\\Speppers2.jpg"",""stimuli\\STATE\\USED\\Speppers1.jpg""]","stimuli\STATE\USED\Speppers1.jpg","stimuli\STATE\USED\Speppers1.jpg",""
"","2180","image-slider-response","374","2.0.0","3601360","ppj3b623m4f","eagle","2","stimuli\STATE\USED\Speppers1.jpg","","","","","","","","","","","3"
"","2414","html-button-response","375","2.0.0","3603776","ppj3b623m4f","eagle","0","Which of these items did you see before?","","","","","Test","","true","[""stimuli\\EXEMPLAR\\USED\\Estapler1.jpg"",""stimuli\\EXEMPLAR\\USED\\Estapler2.jpg""]","stimuli\EXEMPLAR\USED\Estapler1.jpg","stimuli\EXEMPLAR\USED\Estapler1.jpg",""
"","1631","image-slider-response","376","2.0.0","3605410","ppj3b623m4f","eagle","2","stimuli\EXEMPLAR\USED\Estapler1.jpg","","","","","","","","","","","3"
"","1298","html-button-response","377","2.0.0","3606710","ppj3b623m4f","eagle","1","Which of these items did you see before?","","","","","Test","","true","[""stimuli\\EXEMPLAR\\USED\\Ecamera2.jpg"",""stimuli\\EXEMPLAR\\USED\\Ecamera1.jpg""]","stimuli\EXEMPLAR\USED\Ecamera1.jpg","stimuli\EXEMPLAR\USED\Ecamera1.jpg",""
"","2264","image-slider-response","378","2.0.0","3608976","ppj3b623m4f","eagle","3","stimuli\EXEMPLAR\USED\Ecamera1.jpg","","","","","","","","","","","3"
"","1548","html-button-response","379","2.0.0","3610526","ppj3b623m4f","eagle","0","Which of these items did you see before?","","","","","Test","","true","[""stimuli\\STATE\\USED\\Sjuiceglass2.JPG"",""stimuli\\STATE\\USED\\Sjuiceglass1.JPG""]","stimuli\STATE\USED\Sjuiceglass2.JPG","stimuli\STATE\USED\Sjuiceglass2.JPG",""
"","2598","image-slider-response","380","2.0.0","3613127","ppj3b623m4f","eagle","3","stimuli\STATE\USED\Sjuiceglass2.JPG","","","","","","","","","","","3"
"","1764","html-button-response","381","2.0.0","3614893","ppj3b623m4f","eagle","0","Which of these items did you see before?","","","","","Test","","true","[""stimuli\\STATE\\USED\\Sbook2.JPG"",""stimuli\\STATE\\USED\\Sbook1.JPG""]","stimuli\STATE\USED\Sbook2.JPG","stimuli\STATE\USED\Sbook2.JPG",""
"","1497","image-slider-response","382","2.0.0","3616393","ppj3b623m4f","eagle","4","stimuli\STATE\USED\Sbook2.JPG","","","","","","","","","","","3"
"","2481","html-button-response","383","2.0.0","3618876","ppj3b623m4f","eagle","1","Which of these items did you see before?","","","","","Test","","false","[""stimuli\\STATE\\USED\\Smedicaltape2.jpg"",""stimuli\\STATE\\USED\\Smedicaltape1.jpg""]","stimuli\STATE\USED\Smedicaltape2.jpg","stimuli\STATE\USED\Smedicaltape1.jpg",""
"","1582","image-slider-response","384","2.0.0","3620460","ppj3b623m4f","eagle","1","stimuli\STATE\USED\Smedicaltape1.jpg","","","","","","","","","","","3"
"","1432","html-button-response","385","2.0.0","3621894","ppj3b623m4f","eagle","1","Which of these items did you see before?","","","","","Test","","true","[""stimuli\\EXEMPLAR\\USED\\Edinosaur2.jpg"",""stimuli\\EXEMPLAR\\USED\\Edinosaur1.jpg""]","stimuli\EXEMPLAR\USED\Edinosaur1.jpg","stimuli\EXEMPLAR\USED\Edinosaur1.jpg",""
"","1914","image-slider-response","386","2.0.0","3623811","ppj3b623m4f","eagle","3","stimuli\EXEMPLAR\USED\Edinosaur1.jpg","","","","","","","","","","","3"
"","1464","html-button-response","387","2.0.0","3625277","ppj3b623m4f","eagle","0","Which of these items did you see before?","","","","","Test","","true","[""stimuli\\EXEMPLAR\\USED\\Epotatochips2.jpg"",""stimuli\\EXEMPLAR\\USED\\Epotatochips1.jpg""]","stimuli\EXEMPLAR\USED\Epotatochips2.jpg","stimuli\EXEMPLAR\USED\Epotatochips2.jpg",""
"","1698","image-slider-response","388","2.0.0","3626978","ppj3b623m4f","eagle","2","stimuli\EXEMPLAR\USED\Epotatochips2.jpg","","","","","","","","","","","3"
"","1146","html-button-response","389","2.0.0","3628126","ppj3b623m4f","eagle","0","Which of these items did you see before?","","","","","Test","","true","[""stimuli\\EXEMPLAR\\USED\\Estarfish2.jpg"",""stimuli\\EXEMPLAR\\USED\\Estarfish1.jpg""]","stimuli\EXEMPLAR\USED\Estarfish2.jpg","stimuli\EXEMPLAR\USED\Estarfish2.jpg",""
"","2481","image-slider-response","390","2.0.0","3630610","ppj3b623m4f","eagle","3","stimuli\EXEMPLAR\USED\Estarfish2.jpg","","","","","","","","","","","3"
"","1015","html-button-response","391","2.0.0","3631627","ppj3b623m4f","eagle","1","Which of these items did you see before?","","","","","Test","","true","[""stimuli\\EXEMPLAR\\USED\\Ehotairballoon2.jpg"",""stimuli\\EXEMPLAR\\USED\\Ehotairballoon1.jpg""]","stimuli\EXEMPLAR\USED\Ehotairballoon1.jpg","stimuli\EXEMPLAR\USED\Ehotairballoon1.jpg",""
"","2197","image-slider-response","392","2.0.0","3633827","ppj3b623m4f","eagle","4","stimuli\EXEMPLAR\USED\Ehotairballoon1.jpg","","","","","","","","","","","3"
"","1648","html-button-response","393","2.0.0","3635477","ppj3b623m4f","eagle","0","Which of these items did you see before?","","","","","Test","","true","[""stimuli\\EXEMPLAR\\USED\\Ebonzai2.jpg"",""stimuli\\EXEMPLAR\\USED\\Ebonzai1.jpg""]","stimuli\EXEMPLAR\USED\Ebonzai2.jpg","stimuli\EXEMPLAR\USED\Ebonzai2.jpg",""
"","3214","image-slider-response","394","2.0.0","3638694","ppj3b623m4f","eagle","3","stimuli\EXEMPLAR\USED\Ebonzai2.jpg","","","","","","","","","","","3"
"","1266","html-button-response","395","2.0.0","3639961","ppj3b623m4f","eagle","1","Which of these items did you see before?","","","","","Test","","true","[""stimuli\\EXEMPLAR\\USED\\Emicroscope1.jpg"",""stimuli\\EXEMPLAR\\USED\\Emicroscope2.jpg""]","stimuli\EXEMPLAR\USED\Emicroscope2.jpg","stimuli\EXEMPLAR\USED\Emicroscope2.jpg",""
"","1628","image-slider-response","396","2.0.0","3641592","ppj3b623m4f","eagle","3","stimuli\EXEMPLAR\USED\Emicroscope2.jpg","","","","","","","","","","","3"
"","2618","html-button-response","397","2.0.0","3644211","ppj3b623m4f","eagle","1","Which of these items did you see before?","","","","","Test","","true","[""stimuli\\STATE\\USED\\Sgrinder2.jpg"",""stimuli\\STATE\\USED\\Sgrinder1.jpg""]","stimuli\STATE\USED\Sgrinder1.jpg","stimuli\STATE\USED\Sgrinder1.jpg",""
"","2563","image-slider-response","398","2.0.0","3646777","ppj3b623m4f","eagle","3","stimuli\STATE\USED\Sgrinder1.jpg","","","","","","","","","","","3"
"","1582","html-button-response","399","2.0.0","3648360","ppj3b623m4f","eagle","1","Which of these items did you see before?","","","","","Test","","true","[""stimuli\\EXEMPLAR\\USED\\Eladder1.jpg"",""stimuli\\EXEMPLAR\\USED\\Eladder2.jpg""]","stimuli\EXEMPLAR\USED\Eladder2.jpg","stimuli\EXEMPLAR\USED\Eladder2.jpg",""
"","2614","image-slider-response","400","2.0.0","3650977","ppj3b623m4f","eagle","4","stimuli\EXEMPLAR\USED\Eladder2.jpg","","","","","","","","","","","3"
"","1514","html-button-response","401","2.0.0","3652493","ppj3b623m4f","eagle","1","Which of these items did you see before?","","","","","Test","","true","[""stimuli\\STATE\\USED\\Spie1.JPG"",""stimuli\\STATE\\USED\\Spie2.JPG""]","stimuli\STATE\USED\Spie2.JPG","stimuli\STATE\USED\Spie2.JPG",""
"","1731","image-slider-response","402","2.0.0","3654226","ppj3b623m4f","eagle","4","stimuli\STATE\USED\Spie2.JPG","","","","","","","","","","","3"
"","1099","html-button-response","403","2.0.0","3655327","ppj3b623m4f","eagle","0","Which of these items did you see before?","","","","","Test","","true","[""stimuli\\EXEMPLAR\\USED\\Ebrick1.jpg"",""stimuli\\EXEMPLAR\\USED\\Ebrick2.jpg""]","stimuli\EXEMPLAR\USED\Ebrick1.jpg","stimuli\EXEMPLAR\USED\Ebrick1.jpg",""
"","2764","image-slider-response","404","2.0.0","3658094","ppj3b623m4f","eagle","5","stimuli\EXEMPLAR\USED\Ebrick1.jpg","","","","","","","","","","","3"
"","1164","html-button-response","405","2.0.0","3659260","ppj3b623m4f","eagle","0","Which of these items did you see before?","","","","","Test","","true","[""stimuli\\STATE\\USED\\Srainbowslice2.jpg"",""stimuli\\STATE\\USED\\Srainbowslice1.jpg""]","stimuli\STATE\USED\Srainbowslice2.jpg","stimuli\STATE\USED\Srainbowslice2.jpg",""
"","3081","image-slider-response","406","2.0.0","3662344","ppj3b623m4f","eagle","5","stimuli\STATE\USED\Srainbowslice2.jpg","","","","","","","","","","","3"
"","2565","html-button-response","407","2.0.0","3664910","ppj3b623m4f","eagle","1","Which of these items did you see before?","","","","","Test","","true","[""stimuli\\STATE\\USED\\Spatiotable2.jpg"",""stimuli\\STATE\\USED\\Spatiotable1.jpg""]","stimuli\STATE\USED\Spatiotable1.jpg","stimuli\STATE\USED\Spatiotable1.jpg",""
"","1898","image-slider-response","408","2.0.0","3666811","ppj3b623m4f","eagle","1","stimuli\STATE\USED\Spatiotable1.jpg","","","","","","","","","","","3"
"","2147","html-button-response","409","2.0.0","3668960","ppj3b623m4f","eagle","0","Which of these items did you see before?","","","","","Test","","true","[""stimuli\\STATE\\USED\\Spicnicbasket2.jpg"",""stimuli\\STATE\\USED\\Spicnicbasket1.jpg""]","stimuli\STATE\USED\Spicnicbasket2.jpg","stimuli\STATE\USED\Spicnicbasket2.jpg",""
"","1231","image-slider-response","410","2.0.0","3670194","ppj3b623m4f","eagle","2","stimuli\STATE\USED\Spicnicbasket2.jpg","","","","","","","","","","","3"
"","4114","html-button-response","411","2.0.0","3674309","ppj3b623m4f","eagle","0","Which of these items did you see before?","","","","","Test","","true","[""stimuli\\STATE\\USED\\Sdrum1.jpg"",""stimuli\\STATE\\USED\\Sdrum2.jpg""]","stimuli\STATE\USED\Sdrum1.jpg","stimuli\STATE\USED\Sdrum1.jpg",""
"","1498","image-slider-response","412","2.0.0","3675810","ppj3b623m4f","eagle","2","stimuli\STATE\USED\Sdrum1.jpg","","","","","","","","","","","3"
"","1598","html-button-response","413","2.0.0","3677410","ppj3b623m4f","eagle","0","Which of these items did you see before?","","","","","Test","","true","[""stimuli\\STATE\\USED\\Scoffeemaker1.JPG"",""stimuli\\STATE\\USED\\Scoffeemaker2.JPG""]","stimuli\STATE\USED\Scoffeemaker1.JPG","stimuli\STATE\USED\Scoffeemaker1.JPG",""
"","2764","image-slider-response","414","2.0.0","3680178","ppj3b623m4f","eagle","3","stimuli\STATE\USED\Scoffeemaker1.JPG","","","","","","","","","","","3"
"","2513","html-button-response","415","2.0.0","3682693","ppj3b623m4f","eagle","0","Which of these items did you see before?","","","","","Test","","false","[""stimuli\\STATE\\USED\\Snapkins2.jpg"",""stimuli\\STATE\\USED\\Snapkins1.jpg""]","stimuli\STATE\USED\Snapkins1.jpg","stimuli\STATE\USED\Snapkins2.jpg",""
"","1831","image-slider-response","416","2.0.0","3684526","ppj3b623m4f","eagle","3","stimuli\STATE\USED\Snapkins2.jpg","","","","","","","","","","","3"
"","1316","html-button-response","417","2.0.0","3685844","ppj3b623m4f","eagle","1","Which of these items did you see before?","","","","","Test","","true","[""stimuli\\EXEMPLAR\\USED\\Econe2.jpg"",""stimuli\\EXEMPLAR\\USED\\Econe1.jpg""]","stimuli\EXEMPLAR\USED\Econe1.jpg","stimuli\EXEMPLAR\USED\Econe1.jpg",""
"","1413","image-slider-response","418","2.0.0","3687260","ppj3b623m4f","eagle","4","stimuli\EXEMPLAR\USED\Econe1.jpg","","","","","","","","","","","3"
"","1264","html-button-response","419","2.0.0","3688527","ppj3b623m4f","eagle","0","Which of these items did you see before?","","","","","Test","","false","[""stimuli\\STATE\\USED\\Sdryer1.jpg"",""stimuli\\STATE\\USED\\Sdryer2.jpg""]","stimuli\STATE\USED\Sdryer2.jpg","stimuli\STATE\USED\Sdryer1.jpg",""
"","2881","image-slider-response","420","2.0.0","3691410","ppj3b623m4f","eagle","3","stimuli\STATE\USED\Sdryer1.jpg","","","","","","","","","","","3"
"","1715","html-button-response","421","2.0.0","3693127","ppj3b623m4f","eagle","1","Which of these items did you see before?","","","","","Test","","true","[""stimuli\\EXEMPLAR\\USED\\Eremote2.jpg"",""stimuli\\EXEMPLAR\\USED\\Eremote1.jpg""]","stimuli\EXEMPLAR\USED\Eremote1.jpg","stimuli\EXEMPLAR\USED\Eremote1.jpg",""
"","1464","image-slider-response","422","2.0.0","3694593","ppj3b623m4f","eagle","4","stimuli\EXEMPLAR\USED\Eremote1.jpg","","","","","","","","","","","3"
"","1182","html-button-response","423","2.0.0","3695777","ppj3b623m4f","eagle","0","Which of these items did you see before?","","","","","Test","","true","[""stimuli\\STATE\\USED\\Sbox1.jpg"",""stimuli\\STATE\\USED\\Sbox2.jpg""]","stimuli\STATE\USED\Sbox1.jpg","stimuli\STATE\USED\Sbox1.jpg",""
"","1664","image-slider-response","424","2.0.0","3697444","ppj3b623m4f","eagle","5","stimuli\STATE\USED\Sbox1.jpg","","","","","","","","","","","3"
"","2565","html-button-response","425","2.0.0","3700011","ppj3b623m4f","eagle","0","Which of these items did you see before?","","","","","Test","","true","[""stimuli\\STATE\\USED\\Sscissors2.JPG"",""stimuli\\STATE\\USED\\Sscissors1.JPG""]","stimuli\STATE\USED\Sscissors2.JPG","stimuli\STATE\USED\Sscissors2.JPG",""
"","7014","image-slider-response","426","2.0.0","3707028","ppj3b623m4f","eagle","3","stimuli\STATE\USED\Sscissors2.JPG","","","","","","","","","","","3"
"","1248","html-button-response","427","2.0.0","3708278","ppj3b623m4f","eagle","0","Which of these items did you see before?","","","","","Test","","true","[""stimuli\\EXEMPLAR\\USED\\Emuffin2.jpg"",""stimuli\\EXEMPLAR\\USED\\Emuffin1.jpg""]","stimuli\EXEMPLAR\USED\Emuffin2.jpg","stimuli\EXEMPLAR\USED\Emuffin2.jpg",""
"","1263","image-slider-response","428","2.0.0","3709543","ppj3b623m4f","eagle","4","stimuli\EXEMPLAR\USED\Emuffin2.jpg","","","","","","","","","","","3"
"","1415","html-button-response","429","2.0.0","3710960","ppj3b623m4f","eagle","0","Which of these items did you see before?","","","","","Test","","true","[""stimuli\\STATE\\USED\\Sboxwhite1.jpg"",""stimuli\\STATE\\USED\\Sboxwhite2.jpg""]","stimuli\STATE\USED\Sboxwhite1.jpg","stimuli\STATE\USED\Sboxwhite1.jpg",""
"","1548","image-slider-response","430","2.0.0","3712510","ppj3b623m4f","eagle","4","stimuli\STATE\USED\Sboxwhite1.jpg","","","","","","","","","","","3"
"","1898","html-button-response","431","2.0.0","3714410","ppj3b623m4f","eagle","1","Which of these items did you see before?","","","","","Test","","true","[""stimuli\\EXEMPLAR\\USED\\Epliers2.jpg"",""stimuli\\EXEMPLAR\\USED\\Epliers1.jpg""]","stimuli\EXEMPLAR\USED\Epliers1.jpg","stimuli\EXEMPLAR\USED\Epliers1.jpg",""
"","1881","image-slider-response","432","2.0.0","3716294","ppj3b623m4f","eagle","2","stimuli\EXEMPLAR\USED\Epliers1.jpg","","","","","","","","","","","3"
"","3115","html-button-response","433","2.0.0","3719411","ppj3b623m4f","eagle","1","Which of these items did you see before?","","","","","Test","","true","[""stimuli\\STATE\\USED\\Saccordion2.jpg"",""stimuli\\STATE\\USED\\Saccordion1.jpg""]","stimuli\STATE\USED\Saccordion1.jpg","stimuli\STATE\USED\Saccordion1.jpg",""
"","1631","image-slider-response","434","2.0.0","3721044","ppj3b623m4f","eagle","3","stimuli\STATE\USED\Saccordion1.jpg","","","","","","","","","","","3"
"","1598","html-button-response","435","2.0.0","3722644","ppj3b623m4f","eagle","0","Which of these items did you see before?","","","","","Test","","true","[""stimuli\\EXEMPLAR\\USED\\Ebicycle2.jpg"",""stimuli\\EXEMPLAR\\USED\\Ebicycle1.jpg""]","stimuli\EXEMPLAR\USED\Ebicycle2.jpg","stimuli\EXEMPLAR\USED\Ebicycle2.jpg",""
"","1731","image-slider-response","436","2.0.0","3724377","ppj3b623m4f","eagle","2","stimuli\EXEMPLAR\USED\Ebicycle2.jpg","","","","","","","","","","","3"
"","915","html-button-response","437","2.0.0","3725294","ppj3b623m4f","eagle","1","Which of these items did you see before?","","","","","Test","","true","[""stimuli\\EXEMPLAR\\USED\\Ehelmet1.jpg"",""stimuli\\EXEMPLAR\\USED\\Ehelmet2.jpg""]","stimuli\EXEMPLAR\USED\Ehelmet2.jpg","stimuli\EXEMPLAR\USED\Ehelmet2.jpg",""
"","1663","image-slider-response","438","2.0.0","3726960","ppj3b623m4f","eagle","4","stimuli\EXEMPLAR\USED\Ehelmet2.jpg","","","","","","","","","","","3"
"","1316","html-button-response","439","2.0.0","3728278","ppj3b623m4f","eagle","1","Which of these items did you see before?","","","","","Test","","true","[""stimuli\\STATE\\USED\\Sdishes1.JPG"",""stimuli\\STATE\\USED\\Sdishes2.JPG""]","stimuli\STATE\USED\Sdishes2.JPG","stimuli\STATE\USED\Sdishes2.JPG",""
"","2030","image-slider-response","440","2.0.0","3730310","ppj3b623m4f","eagle","4","stimuli\STATE\USED\Sdishes2.JPG","","","","","","","","","","","3"
"","1249","html-button-response","441","2.0.0","3731561","ppj3b623m4f","eagle","0","Which of these items did you see before?","","","","","Test","","true","[""stimuli\\STATE\\USED\\Sredcabbage2.jpg"",""stimuli\\STATE\\USED\\Sredcabbage1.jpg""]","stimuli\STATE\USED\Sredcabbage2.jpg","stimuli\STATE\USED\Sredcabbage2.jpg",""
"","2214","image-slider-response","442","2.0.0","3733778","ppj3b623m4f","eagle","3","stimuli\STATE\USED\Sredcabbage2.jpg","","","","","","","","","","","3"
"","880","html-button-response","443","2.0.0","3734660","ppj3b623m4f","eagle","1","Which of these items did you see before?","","","","","Test","","true","[""stimuli\\EXEMPLAR\\USED\\Eelectricbass1.jpg"",""stimuli\\EXEMPLAR\\USED\\Eelectricbass2.jpg""]","stimuli\EXEMPLAR\USED\Eelectricbass2.jpg","stimuli\EXEMPLAR\USED\Eelectricbass2.jpg",""
"","1214","image-slider-response","444","2.0.0","3735877","ppj3b623m4f","eagle","5","stimuli\EXEMPLAR\USED\Eelectricbass2.jpg","","","","","","","","","","","3"
"","8015","html-button-response","445","2.0.0","3743894","ppj3b623m4f","eagle","1","Which of these items did you see before?","","","","","Test","","false","[""stimuli\\STATE\\USED\\Sbureau1.JPG"",""stimuli\\STATE\\USED\\Sbureau2.JPG""]","stimuli\STATE\USED\Sbureau1.JPG","stimuli\STATE\USED\Sbureau2.JPG",""
"","1848","image-slider-response","446","2.0.0","3745745","ppj3b623m4f","eagle","2","stimuli\STATE\USED\Sbureau2.JPG","","","","","","","","","","","3"
"","1164","html-button-response","447","2.0.0","3746911","ppj3b623m4f","eagle","0","Which of these items did you see before?","","","","","Test","","true","[""stimuli\\EXEMPLAR\\USED\\Etongs2.jpg"",""stimuli\\EXEMPLAR\\USED\\Etongs1.jpg""]","stimuli\EXEMPLAR\USED\Etongs2.jpg","stimuli\EXEMPLAR\USED\Etongs2.jpg",""
"","2464","image-slider-response","448","2.0.0","3749378","ppj3b623m4f","eagle","3","stimuli\EXEMPLAR\USED\Etongs2.jpg","","","","","","","","","","","3"
"","52256","survey-text","449","2.0.0","3801663","ppj3b623m4f","eagle","{""experiment_purpose"":""memory recall for objects"",""Q1"":""color was one of the main things. uniqueness also."",""technical_issues"":""no""}","","","","","","","","","","","",""
