"success","rt","trial_type","trial_index","plugin_version","time_elapsed","random_id","participant","response","stimulus","timeout","failed_images","failed_audio","failed_video","trial_phase","repeated","correct","choice_images","correct_image","choice","slider_start"
"true","64730","fullscreen","0","2.0.0","65735","prsues5texd","cheetah","","","","","","","","","","","","",""
"","2752","survey-text","1","2.0.0","68495","prsues5texd","cheetah","{""participant_id"":""cheetah""}","","","","","","","","","","","",""
"","1572","html-keyboard-response","2","2.0.0","70068","prsues5texd","cheetah"," ","<p>Welcome to the Massive Memory Experiment. Press any key to move on. </p>","","","","","","","","","","",""
"","21765","html-keyboard-response","3","2.0.0","91834","prsues5texd","cheetah"," ","
      <div style='width:900px;margin: auto;'><p>In the first section you will see a stream of images, with fixation crosses in between each image.</p>
      <p>Each image will remain on screen for 2 seconds. Your job is to detect images that you have seen before within the experiment. Whenever you see an image that you have seen previously <b>at any point in the stream of images</b>, press the spacebar.</p>
      <p>We will let you know if you have correctly or falsely clicked the spacebar on an image by changing the color of the fixation cross.</p>
      <p>If you press the spacebar correctly (the image really did appear earlier), the fixation cross will turn green. If you pressed the spacebar incorrectly, the fixation cross will turn red.</p>
      <p>Please watch carefully to detect the images that show up again!</p>
      <p>Press any key to start.</p></div>
    ","","","","","","","","","","",""
"true","","preload","4","2.0.0","97660","prsues5texd","cheetah","","","false","[]","[]","[]","","","","","","",""
"","null","image-keyboard-response","5","2.0.0","99665","prsues5texd","cheetah","null","stimuli\STATE\USED\Sscissors2.JPG","","","","","Memory","false","null","","","",""
"","null","html-keyboard-response","6","2.0.0","100168","prsues5texd","cheetah","null","<div style=""font-size:60px; color: black;"">+</div>","","","","","","","","","","",""
"","null","image-keyboard-response","7","2.0.0","102171","prsues5texd","cheetah","null","stimuli\STATE\USED\Scateringtray2.jpg","","","","","Memory","false","null","","","",""
"","null","html-keyboard-response","8","2.0.0","102674","prsues5texd","cheetah","null","<div style=""font-size:60px; color: black;"">+</div>","","","","","","","","","","",""
"","null","image-keyboard-response","9","2.0.0","104678","prsues5texd","cheetah","null","stimuli\EXEMPLAR\USED\Eballoon1.jpg","","","","","Memory","false","null","","","",""
"","null","html-keyboard-response","10","2.0.0","105181","prsues5texd","cheetah","null","<div style=""font-size:60px; color: black;"">+</div>","","","","","","","","","","",""
"","null","image-keyboard-response","11","2.0.0","107185","prsues5texd","cheetah","null","stimuli\STATE\USED\Scooker2.jpg","","","","","Memory","false","null","","","",""
"","null","html-keyboard-response","12","2.0.0","107689","prsues5texd","cheetah","null","<div style=""font-size:60px; color: black;"">+</div>","","","","","","","","","","",""
"","null","image-keyboard-response","13","2.0.0","109693","prsues5texd","cheetah","null","stimuli\EXEMPLAR\USED\Ebrick1.jpg","","","","","Memory","false","null","","","",""
"","null","html-keyboard-response","14","2.0.0","110197","prsues5texd","cheetah","null","<div style=""font-size:60px; color: black;"">+</div>","","","","","","","","","","",""
"","null","image-keyboard-response","15","2.0.0","112201","prsues5texd","cheetah","null","stimuli\EXEMPLAR\USED\Ecalculator2.jpg","","","","","Memory","false","null","","","",""
"","null","html-keyboard-response","16","2.0.0","112702","prsues5texd","cheetah","null","<div style=""font-size:60px; color: black;"">+</div>","","","","","","","","","","",""
"","null","image-keyboard-response","17","2.0.0","114706","prsues5texd","cheetah","null","stimuli\STATE\USED\Sdryer2.jpg","","","","","Memory","false","null","","","",""
"","null","html-keyboard-response","18","2.0.0","115209","prsues5texd","cheetah","null","<div style=""font-size:60px; color: black;"">+</div>","","","","","","","","","","",""
"","700","image-keyboard-response","19","2.0.0","117211","prsues5texd","cheetah"," ","stimuli\STATE\USED\Scooker2.jpg","","","","","Memory","true","true","","","",""
"","null","html-keyboard-response","20","2.0.0","117714","prsues5texd","cheetah","null","<div style=""font-size:60px; color: green;"">+</div>","","","","","","","","","","",""
"","null","image-keyboard-response","21","2.0.0","119717","prsues5texd","cheetah","null","stimuli\STATE\USED\Seggplant2.jpg","","","","","Memory","false","null","","","",""
"","null","html-keyboard-response","22","2.0.0","120220","prsues5texd","cheetah","null","<div style=""font-size:60px; color: black;"">+</div>","","","","","","","","","","",""
"","null","image-keyboard-response","23","2.0.0","122223","prsues5texd","cheetah","null","stimuli\EXEMPLAR\USED\Ecamera1.jpg","","","","","Memory","false","null","","","",""
"","null","html-keyboard-response","24","2.0.0","122725","prsues5texd","cheetah","null","<div style=""font-size:60px; color: black;"">+</div>","","","","","","","","","","",""
"","null","image-keyboard-response","25","2.0.0","124728","prsues5texd","cheetah","null","stimuli\STATE\USED\Scoffeemaker2.JPG","","","","","Memory","false","null","","","",""
"","null","html-keyboard-response","26","2.0.0","125231","prsues5texd","cheetah","null","<div style=""font-size:60px; color: black;"">+</div>","","","","","","","","","","",""
"","null","image-keyboard-response","27","2.0.0","127235","prsues5texd","cheetah","null","stimuli\STATE\USED\Shandsign2.JPG","","","","","Memory","false","null","","","",""
"","null","html-keyboard-response","28","2.0.0","127737","prsues5texd","cheetah","null","<div style=""font-size:60px; color: black;"">+</div>","","","","","","","","","","",""
"","null","image-keyboard-response","29","2.0.0","129741","prsues5texd","cheetah","null","stimuli\STATE\USED\Schinesefoodbox1.jpg","","","","","Memory","false","null","","","",""
"","null","html-keyboard-response","30","2.0.0","130243","prsues5texd","cheetah","null","<div style=""font-size:60px; color: black;"">+</div>","","","","","","","","","","",""
"","null","image-keyboard-response","31","2.0.0","132247","prsues5texd","cheetah","null","stimuli\STATE\USED\Saccordion1.jpg","","","","","Memory","false","null","","","",""
"","null","html-keyboard-response","32","2.0.0","132748","prsues5texd","cheetah","null","<div style=""font-size:60px; color: black;"">+</div>","","","","","","","","","","",""
"","null","image-keyboard-response","33","2.0.0","134752","prsues5texd","cheetah","null","stimuli\EXEMPLAR\USED\Enozzle1.jpg","","","","","Memory","false","null","","","",""
"","null","html-keyboard-response","34","2.0.0","135255","prsues5texd","cheetah","null","<div style=""font-size:60px; color: black;"">+</div>","","","","","","","","","","",""
"","null","image-keyboard-response","35","2.0.0","137258","prsues5texd","cheetah","null","stimuli\EXEMPLAR\USED\Ewineglass2.jpg","","","","","Memory","false","null","","","",""
"","null","html-keyboard-response","36","2.0.0","137761","prsues5texd","cheetah","null","<div style=""font-size:60px; color: black;"">+</div>","","","","","","","","","","",""
"","null","image-keyboard-response","37","2.0.0","139763","prsues5texd","cheetah","null","stimuli\STATE\USED\Sdishwasher2.jpg","","","","","Memory","false","null","","","",""
"","null","html-keyboard-response","38","2.0.0","140266","prsues5texd","cheetah","null","<div style=""font-size:60px; color: black;"">+</div>","","","","","","","","","","",""
"","null","image-keyboard-response","39","2.0.0","142269","prsues5texd","cheetah","null","stimuli\STATE\USED\Sbrie1.JPG","","","","","Memory","false","null","","","",""
"","null","html-keyboard-response","40","2.0.0","142772","prsues5texd","cheetah","null","<div style=""font-size:60px; color: black;"">+</div>","","","","","","","","","","",""
"","null","image-keyboard-response","41","2.0.0","144775","prsues5texd","cheetah","null","stimuli\STATE\USED\Sredcabbage2.jpg","","","","","Memory","false","null","","","",""
"","null","html-keyboard-response","42","2.0.0","145278","prsues5texd","cheetah","null","<div style=""font-size:60px; color: black;"">+</div>","","","","","","","","","","",""
"","null","image-keyboard-response","43","2.0.0","147282","prsues5texd","cheetah","null","stimuli\EXEMPLAR\USED\Etrophy1.jpg","","","","","Memory","false","null","","","",""
"","null","html-keyboard-response","44","2.0.0","147785","prsues5texd","cheetah","null","<div style=""font-size:60px; color: black;"">+</div>","","","","","","","","","","",""
"","751","image-keyboard-response","45","2.0.0","149788","prsues5texd","cheetah"," ","stimuli\STATE\USED\Sdishwasher2.jpg","","","","","Memory","true","true","","","",""
"","null","html-keyboard-response","46","2.0.0","150291","prsues5texd","cheetah","null","<div style=""font-size:60px; color: green;"">+</div>","","","","","","","","","","",""
"","null","image-keyboard-response","47","2.0.0","152294","prsues5texd","cheetah","null","stimuli\EXEMPLAR\USED\Eremote1.jpg","","","","","Memory","false","null","","","",""
"","null","html-keyboard-response","48","2.0.0","152797","prsues5texd","cheetah","null","<div style=""font-size:60px; color: black;"">+</div>","","","","","","","","","","",""
"","null","image-keyboard-response","49","2.0.0","154801","prsues5texd","cheetah","null","stimuli\STATE\USED\Shandshake2.JPG","","","","","Memory","false","null","","","",""
"","null","html-keyboard-response","50","2.0.0","155304","prsues5texd","cheetah","null","<div style=""font-size:60px; color: black;"">+</div>","","","","","","","","","","",""
"","null","image-keyboard-response","51","2.0.0","157307","prsues5texd","cheetah","null","stimuli\EXEMPLAR\USED\Ehoe2.jpg","","","","","Memory","false","null","","","",""
"","null","html-keyboard-response","52","2.0.0","157810","prsues5texd","cheetah","null","<div style=""font-size:60px; color: black;"">+</div>","","","","","","","","","","",""
"","null","image-keyboard-response","53","2.0.0","159814","prsues5texd","cheetah","null","stimuli\STATE\USED\Sbriefcasemetal1.JPG","","","","","Memory","false","null","","","",""
"","null","html-keyboard-response","54","2.0.0","160316","prsues5texd","cheetah","null","<div style=""font-size:60px; color: black;"">+</div>","","","","","","","","","","",""
"","null","image-keyboard-response","55","2.0.0","162320","prsues5texd","cheetah","null","stimuli\EXEMPLAR\USED\Emicroscope2.jpg","","","","","Memory","false","null","","","",""
"","null","html-keyboard-response","56","2.0.0","162823","prsues5texd","cheetah","null","<div style=""font-size:60px; color: black;"">+</div>","","","","","","","","","","",""
"","null","image-keyboard-response","57","2.0.0","164828","prsues5texd","cheetah","null","stimuli\EXEMPLAR\USED\Etractor2.jpg","","","","","Memory","false","null","","","",""
"","null","html-keyboard-response","58","2.0.0","165330","prsues5texd","cheetah","null","<div style=""font-size:60px; color: black;"">+</div>","","","","","","","","","","",""
"","null","image-keyboard-response","59","2.0.0","167333","prsues5texd","cheetah","null","stimuli\EXEMPLAR\USED\Echopsticks2.jpg","","","","","Memory","false","null","","","",""
"","null","html-keyboard-response","60","2.0.0","167836","prsues5texd","cheetah","null","<div style=""font-size:60px; color: black;"">+</div>","","","","","","","","","","",""
"","null","image-keyboard-response","61","2.0.0","169840","prsues5texd","cheetah","null","stimuli\STATE\USED\Slockbox1.jpg","","","","","Memory","false","null","","","",""
"","null","html-keyboard-response","62","2.0.0","170342","prsues5texd","cheetah","null","<div style=""font-size:60px; color: black;"">+</div>","","","","","","","","","","",""
"","null","image-keyboard-response","63","2.0.0","172346","prsues5texd","cheetah","null","stimuli\EXEMPLAR\USED\Ebicycle1.jpg","","","","","Memory","false","null","","","",""
"","null","html-keyboard-response","64","2.0.0","172848","prsues5texd","cheetah","null","<div style=""font-size:60px; color: black;"">+</div>","","","","","","","","","","",""
"","null","image-keyboard-response","65","2.0.0","174850","prsues5texd","cheetah","null","stimuli\STATE\USED\Sseatbelt2.jpg","","","","","Memory","false","null","","","",""
"","null","html-keyboard-response","66","2.0.0","175352","prsues5texd","cheetah","null","<div style=""font-size:60px; color: black;"">+</div>","","","","","","","","","","",""
"","null","image-keyboard-response","67","2.0.0","177362","prsues5texd","cheetah","null","stimuli\STATE\USED\Sdonut1.jpg","","","","","Memory","false","null","","","",""
"","null","html-keyboard-response","68","2.0.0","177863","prsues5texd","cheetah","null","<div style=""font-size:60px; color: black;"">+</div>","","","","","","","","","","",""
"","null","image-keyboard-response","69","2.0.0","179867","prsues5texd","cheetah","null","stimuli\EXEMPLAR\USED\Efolder2.jpg","","","","","Memory","false","null","","","",""
"","null","html-keyboard-response","70","2.0.0","180369","prsues5texd","cheetah","null","<div style=""font-size:60px; color: black;"">+</div>","","","","","","","","","","",""
"","null","image-keyboard-response","71","2.0.0","182373","prsues5texd","cheetah","null","stimuli\EXEMPLAR\USED\Escroll2.jpg","","","","","Memory","false","null","","","",""
"","null","html-keyboard-response","72","2.0.0","182874","prsues5texd","cheetah","null","<div style=""font-size:60px; color: black;"">+</div>","","","","","","","","","","",""
"","null","image-keyboard-response","73","2.0.0","184878","prsues5texd","cheetah","null","stimuli\STATE\USED\Sbreadslice2.jpg","","","","","Memory","false","null","","","",""
"","null","html-keyboard-response","74","2.0.0","185381","prsues5texd","cheetah","null","<div style=""font-size:60px; color: black;"">+</div>","","","","","","","","","","",""
"","731","image-keyboard-response","75","2.0.0","187384","prsues5texd","cheetah"," ","stimuli\STATE\USED\Sdonut1.jpg","","","","","Memory","true","true","","","",""
"","null","html-keyboard-response","76","2.0.0","187886","prsues5texd","cheetah","null","<div style=""font-size:60px; color: green;"">+</div>","","","","","","","","","","",""
"","null","image-keyboard-response","77","2.0.0","189889","prsues5texd","cheetah","null","stimuli\STATE\USED\Sgrinder2.jpg","","","","","Memory","false","null","","","",""
"","null","html-keyboard-response","78","2.0.0","190391","prsues5texd","cheetah","null","<div style=""font-size:60px; color: black;"">+</div>","","","","","","","","","","",""
"","null","image-keyboard-response","79","2.0.0","192395","prsues5texd","cheetah","null","stimuli\EXEMPLAR\USED\Econe1.jpg","","","","","Memory","false","null","","","",""
"","null","html-keyboard-response","80","2.0.0","192897","prsues5texd","cheetah","null","<div style=""font-size:60px; color: black;"">+</div>","","","","","","","","","","",""
"","null","image-keyboard-response","81","2.0.0","194900","prsues5texd","cheetah","null","stimuli\STATE\USED\Swaffleiron1.jpg","","","","","Memory","false","null","","","",""
"","null","html-keyboard-response","82","2.0.0","195402","prsues5texd","cheetah","null","<div style=""font-size:60px; color: black;"">+</div>","","","","","","","","","","",""
"","null","image-keyboard-response","83","2.0.0","197405","prsues5texd","cheetah","null","stimuli\STATE\USED\Smedicaltape1.jpg","","","","","Memory","false","null","","","",""
"","null","html-keyboard-response","84","2.0.0","197908","prsues5texd","cheetah","null","<div style=""font-size:60px; color: black;"">+</div>","","","","","","","","","","",""
"","880","image-keyboard-response","85","2.0.0","199910","prsues5texd","cheetah"," ","stimuli\STATE\USED\Sgrinder2.jpg","","","","","Memory","true","true","","","",""
"","null","html-keyboard-response","86","2.0.0","200413","prsues5texd","cheetah","null","<div style=""font-size:60px; color: green;"">+</div>","","","","","","","","","","",""
"","null","image-keyboard-response","87","2.0.0","202417","prsues5texd","cheetah","null","stimuli\EXEMPLAR\USED\Epotatochips1.jpg","","","","","Memory","false","null","","","",""
"","null","html-keyboard-response","88","2.0.0","202920","prsues5texd","cheetah","null","<div style=""font-size:60px; color: black;"">+</div>","","","","","","","","","","",""
"","null","image-keyboard-response","89","2.0.0","204922","prsues5texd","cheetah","null","stimuli\EXEMPLAR\USED\Eladder1.jpg","","","","","Memory","false","null","","","",""
"","null","html-keyboard-response","90","2.0.0","205425","prsues5texd","cheetah","null","<div style=""font-size:60px; color: black;"">+</div>","","","","","","","","","","",""
"","null","image-keyboard-response","91","2.0.0","207429","prsues5texd","cheetah","null","stimuli\STATE\USED\Sbarnmailbox1.jpg","","","","","Memory","false","null","","","",""
"","null","html-keyboard-response","92","2.0.0","207931","prsues5texd","cheetah","null","<div style=""font-size:60px; color: black;"">+</div>","","","","","","","","","","",""
"","null","image-keyboard-response","93","2.0.0","209934","prsues5texd","cheetah","null","stimuli\STATE\USED\Saccordionsmall1.JPG","","","","","Memory","false","null","","","",""
"","null","html-keyboard-response","94","2.0.0","210438","prsues5texd","cheetah","null","<div style=""font-size:60px; color: black;"">+</div>","","","","","","","","","","",""
"","741","image-keyboard-response","95","2.0.0","212442","prsues5texd","cheetah"," ","stimuli\EXEMPLAR\USED\Epotatochips1.jpg","","","","","Memory","true","true","","","",""
"","null","html-keyboard-response","96","2.0.0","212945","prsues5texd","cheetah","null","<div style=""font-size:60px; color: green;"">+</div>","","","","","","","","","","",""
"","null","image-keyboard-response","97","2.0.0","214948","prsues5texd","cheetah","null","stimuli\EXEMPLAR\USED\Etrowel1.jpg","","","","","Memory","false","null","","","",""
"","null","html-keyboard-response","98","2.0.0","215451","prsues5texd","cheetah","null","<div style=""font-size:60px; color: black;"">+</div>","","","","","","","","","","",""
"","null","image-keyboard-response","99","2.0.0","217454","prsues5texd","cheetah","null","stimuli\EXEMPLAR\USED\Ehanger2.jpg","","","","","Memory","false","null","","","",""
"","null","html-keyboard-response","100","2.0.0","217957","prsues5texd","cheetah","null","<div style=""font-size:60px; color: black;"">+</div>","","","","","","","","","","",""
"","null","image-keyboard-response","101","2.0.0","219961","prsues5texd","cheetah","null","stimuli\EXEMPLAR\USED\Ewheelchair1.jpg","","","","","Memory","false","null","","","",""
"","null","html-keyboard-response","102","2.0.0","220463","prsues5texd","cheetah","null","<div style=""font-size:60px; color: black;"">+</div>","","","","","","","","","","",""
"","null","image-keyboard-response","103","2.0.0","222467","prsues5texd","cheetah","null","stimuli\EXEMPLAR\USED\Echocolatebar2.jpg","","","","","Memory","false","null","","","",""
"","null","html-keyboard-response","104","2.0.0","222970","prsues5texd","cheetah","null","<div style=""font-size:60px; color: black;"">+</div>","","","","","","","","","","",""
"","810","image-keyboard-response","105","2.0.0","224980","prsues5texd","cheetah"," ","stimuli\EXEMPLAR\USED\Etrowel1.jpg","","","","","Memory","true","true","","","",""
"","null","html-keyboard-response","106","2.0.0","225482","prsues5texd","cheetah","null","<div style=""font-size:60px; color: green;"">+</div>","","","","","","","","","","",""
"","2097","html-button-response","107","2.0.0","227581","prsues5texd","cheetah","0","Are you still there?","","","","","Attention Check","","","","","",""
"","null","image-keyboard-response","108","2.0.0","229584","prsues5texd","cheetah","null","stimuli\EXEMPLAR\USED\Earch1.jpg","","","","","Memory","false","null","","","",""
"","null","html-keyboard-response","109","2.0.0","230086","prsues5texd","cheetah","null","<div style=""font-size:60px; color: black;"">+</div>","","","","","","","","","","",""
"","null","image-keyboard-response","110","2.0.0","232089","prsues5texd","cheetah","null","stimuli\STATE\USED\Speppers2.jpg","","","","","Memory","false","null","","","",""
"","null","html-keyboard-response","111","2.0.0","232592","prsues5texd","cheetah","null","<div style=""font-size:60px; color: black;"">+</div>","","","","","","","","","","",""
"","null","image-keyboard-response","112","2.0.0","234594","prsues5texd","cheetah","null","stimuli\STATE\USED\Sjuiceglass2.JPG","","","","","Memory","false","null","","","",""
"","null","html-keyboard-response","113","2.0.0","235097","prsues5texd","cheetah","null","<div style=""font-size:60px; color: black;"">+</div>","","","","","","","","","","",""
"","984","image-keyboard-response","114","2.0.0","237100","prsues5texd","cheetah"," ","stimuli\STATE\USED\Sbook1.JPG","","","","","Memory","false","false","","","",""
"","null","html-keyboard-response","115","2.0.0","237602","prsues5texd","cheetah","null","<div style=""font-size:60px; color: red;"">+</div>","","","","","","","","","","",""
"","null","image-keyboard-response","116","2.0.0","239605","prsues5texd","cheetah","null","stimuli\STATE\USED\Sbrushes1.jpg","","","","","Memory","false","null","","","",""
"","null","html-keyboard-response","117","2.0.0","240108","prsues5texd","cheetah","null","<div style=""font-size:60px; color: black;"">+</div>","","","","","","","","","","",""
"","null","image-keyboard-response","118","2.0.0","242112","prsues5texd","cheetah","null","stimuli\STATE\USED\Sdie1.jpg","","","","","Memory","false","null","","","",""
"","null","html-keyboard-response","119","2.0.0","242614","prsues5texd","cheetah","null","<div style=""font-size:60px; color: black;"">+</div>","","","","","","","","","","",""
"","null","image-keyboard-response","120","2.0.0","244617","prsues5texd","cheetah","null","stimuli\EXEMPLAR\USED\Elog1.jpg","","","","","Memory","false","null","","","",""
"","null","html-keyboard-response","121","2.0.0","245120","prsues5texd","cheetah","null","<div style=""font-size:60px; color: black;"">+</div>","","","","","","","","","","",""
"","null","image-keyboard-response","122","2.0.0","247124","prsues5texd","cheetah","null","stimuli\STATE\USED\Sdrum1.jpg","","","","","Memory","false","null","","","",""
"","null","html-keyboard-response","123","2.0.0","247627","prsues5texd","cheetah","null","<div style=""font-size:60px; color: black;"">+</div>","","","","","","","","","","",""
"","null","image-keyboard-response","124","2.0.0","249630","prsues5texd","cheetah","null","stimuli\EXEMPLAR\USED\Eplate2.jpg","","","","","Memory","false","null","","","",""
"","null","html-keyboard-response","125","2.0.0","250132","prsues5texd","cheetah","null","<div style=""font-size:60px; color: black;"">+</div>","","","","","","","","","","",""
"","781","image-keyboard-response","126","2.0.0","252135","prsues5texd","cheetah"," ","stimuli\STATE\USED\Sdie1.jpg","","","","","Memory","true","true","","","",""
"","null","html-keyboard-response","127","2.0.0","252638","prsues5texd","cheetah","null","<div style=""font-size:60px; color: green;"">+</div>","","","","","","","","","","",""
"","null","image-keyboard-response","128","2.0.0","254642","prsues5texd","cheetah","null","stimuli\EXEMPLAR\USED\Eicecream2.jpg","","","","","Memory","false","null","","","",""
"","null","html-keyboard-response","129","2.0.0","255145","prsues5texd","cheetah","null","<div style=""font-size:60px; color: black;"">+</div>","","","","","","","","","","",""
"","null","image-keyboard-response","130","2.0.0","257149","prsues5texd","cheetah","null","stimuli\EXEMPLAR\USED\Eelectricbass2.jpg","","","","","Memory","false","null","","","",""
"","null","html-keyboard-response","131","2.0.0","257651","prsues5texd","cheetah","null","<div style=""font-size:60px; color: black;"">+</div>","","","","","","","","","","",""
"","null","image-keyboard-response","132","2.0.0","259655","prsues5texd","cheetah","null","stimuli\STATE\USED\Spadlock1.jpg","","","","","Memory","false","null","","","",""
"","null","html-keyboard-response","133","2.0.0","260157","prsues5texd","cheetah","null","<div style=""font-size:60px; color: black;"">+</div>","","","","","","","","","","",""
"","null","image-keyboard-response","134","2.0.0","262161","prsues5texd","cheetah","null","stimuli\EXEMPLAR\USED\Egame2.jpg","","","","","Memory","false","null","","","",""
"","null","html-keyboard-response","135","2.0.0","262664","prsues5texd","cheetah","null","<div style=""font-size:60px; color: black;"">+</div>","","","","","","","","","","",""
"","712","image-keyboard-response","136","2.0.0","264673","prsues5texd","cheetah"," ","stimuli\EXEMPLAR\USED\Eicecream2.jpg","","","","","Memory","true","true","","","",""
"","null","html-keyboard-response","137","2.0.0","265175","prsues5texd","cheetah","null","<div style=""font-size:60px; color: green;"">+</div>","","","","","","","","","","",""
"","null","image-keyboard-response","138","2.0.0","267178","prsues5texd","cheetah","null","stimuli\STATE\USED\Sapplesgreenbasket2.jpg","","","","","Memory","false","null","","","",""
"","null","html-keyboard-response","139","2.0.0","267681","prsues5texd","cheetah","null","<div style=""font-size:60px; color: black;"">+</div>","","","","","","","","","","",""
"","null","image-keyboard-response","140","2.0.0","269684","prsues5texd","cheetah","null","stimuli\EXEMPLAR\USED\Eguitar2.jpg","","","","","Memory","false","null","","","",""
"","null","html-keyboard-response","141","2.0.0","270186","prsues5texd","cheetah","null","<div style=""font-size:60px; color: black;"">+</div>","","","","","","","","","","",""
"","null","image-keyboard-response","142","2.0.0","272190","prsues5texd","cheetah","null","stimuli\EXEMPLAR\USED\Esunglasses2.jpg","","","","","Memory","false","null","","","",""
"","null","html-keyboard-response","143","2.0.0","272692","prsues5texd","cheetah","null","<div style=""font-size:60px; color: black;"">+</div>","","","","","","","","","","",""
"","null","image-keyboard-response","144","2.0.0","274695","prsues5texd","cheetah","null","stimuli\STATE\USED\Snapkins1.jpg","","","","","Memory","false","null","","","",""
"","null","html-keyboard-response","145","2.0.0","275198","prsues5texd","cheetah","null","<div style=""font-size:60px; color: black;"">+</div>","","","","","","","","","","",""
"","null","image-keyboard-response","146","2.0.0","277202","prsues5texd","cheetah","null","stimuli\EXEMPLAR\USED\Estapler1.jpg","","","","","Memory","false","null","","","",""
"","null","html-keyboard-response","147","2.0.0","277705","prsues5texd","cheetah","null","<div style=""font-size:60px; color: black;"">+</div>","","","","","","","","","","",""
"","827","image-keyboard-response","148","2.0.0","279708","prsues5texd","cheetah"," ","stimuli\EXEMPLAR\USED\Eguitar2.jpg","","","","","Memory","true","true","","","",""
"","null","html-keyboard-response","149","2.0.0","280210","prsues5texd","cheetah","null","<div style=""font-size:60px; color: green;"">+</div>","","","","","","","","","","",""
"","null","image-keyboard-response","150","2.0.0","282214","prsues5texd","cheetah","null","stimuli\STATE\USED\Spatiotable2.jpg","","","","","Memory","false","null","","","",""
"","null","html-keyboard-response","151","2.0.0","282716","prsues5texd","cheetah","null","<div style=""font-size:60px; color: black;"">+</div>","","","","","","","","","","",""
"","null","image-keyboard-response","152","2.0.0","284720","prsues5texd","cheetah","null","stimuli\EXEMPLAR\USED\Espraybottle1.jpg","","","","","Memory","false","null","","","",""
"","null","html-keyboard-response","153","2.0.0","285222","prsues5texd","cheetah","null","<div style=""font-size:60px; color: black;"">+</div>","","","","","","","","","","",""
"","null","image-keyboard-response","154","2.0.0","287225","prsues5texd","cheetah","null","stimuli\EXEMPLAR\USED\Emuffin1.jpg","","","","","Memory","false","null","","","",""
"","null","html-keyboard-response","155","2.0.0","287728","prsues5texd","cheetah","null","<div style=""font-size:60px; color: black;"">+</div>","","","","","","","","","","",""
"","null","image-keyboard-response","156","2.0.0","289730","prsues5texd","cheetah","null","stimuli\STATE\USED\Sapple1.jpg","","","","","Memory","false","null","","","",""
"","null","html-keyboard-response","157","2.0.0","290233","prsues5texd","cheetah","null","<div style=""font-size:60px; color: black;"">+</div>","","","","","","","","","","",""
"","null","image-keyboard-response","158","2.0.0","292236","prsues5texd","cheetah","null","stimuli\EXEMPLAR\USED\Epliers1.jpg","","","","","Memory","false","null","","","",""
"","null","html-keyboard-response","159","2.0.0","292740","prsues5texd","cheetah","null","<div style=""font-size:60px; color: black;"">+</div>","","","","","","","","","","",""
"","1034","image-keyboard-response","160","2.0.0","294744","prsues5texd","cheetah"," ","stimuli\EXEMPLAR\USED\Espraybottle1.jpg","","","","","Memory","true","true","","","",""
"","null","html-keyboard-response","161","2.0.0","295246","prsues5texd","cheetah","null","<div style=""font-size:60px; color: green;"">+</div>","","","","","","","","","","",""
"","null","image-keyboard-response","162","2.0.0","297249","prsues5texd","cheetah","null","stimuli\EXEMPLAR\USED\Ebread2.jpg","","","","","Memory","false","null","","","",""
"","null","html-keyboard-response","163","2.0.0","297753","prsues5texd","cheetah","null","<div style=""font-size:60px; color: black;"">+</div>","","","","","","","","","","",""
"","null","image-keyboard-response","164","2.0.0","299756","prsues5texd","cheetah","null","stimuli\EXEMPLAR\USED\Ebell2.jpg","","","","","Memory","false","null","","","",""
"","null","html-keyboard-response","165","2.0.0","300259","prsues5texd","cheetah","null","<div style=""font-size:60px; color: black;"">+</div>","","","","","","","","","","",""
"","null","image-keyboard-response","166","2.0.0","302262","prsues5texd","cheetah","null","stimuli\EXEMPLAR\USED\Edispenser2.jpg","","","","","Memory","false","null","","","",""
"","null","html-keyboard-response","167","2.0.0","302765","prsues5texd","cheetah","null","<div style=""font-size:60px; color: black;"">+</div>","","","","","","","","","","",""
"","null","image-keyboard-response","168","2.0.0","304768","prsues5texd","cheetah","null","stimuli\EXEMPLAR\USED\Eremover1.jpg","","","","","Memory","false","null","","","",""
"","null","html-keyboard-response","169","2.0.0","305271","prsues5texd","cheetah","null","<div style=""font-size:60px; color: black;"">+</div>","","","","","","","","","","",""
"","null","image-keyboard-response","170","2.0.0","307274","prsues5texd","cheetah","null","stimuli\STATE\USED\Sgiftbag2.jpg","","","","","Memory","false","null","","","",""
"","null","html-keyboard-response","171","2.0.0","307776","prsues5texd","cheetah","null","<div style=""font-size:60px; color: black;"">+</div>","","","","","","","","","","",""
"","null","image-keyboard-response","172","2.0.0","309780","prsues5texd","cheetah","null","stimuli\EXEMPLAR\USED\Eswimsuit2.jpg","","","","","Memory","false","null","","","",""
"","null","html-keyboard-response","173","2.0.0","310283","prsues5texd","cheetah","null","<div style=""font-size:60px; color: black;"">+</div>","","","","","","","","","","",""
"","null","image-keyboard-response","174","2.0.0","312285","prsues5texd","cheetah","null","stimuli\STATE\USED\Sdresser2.jpg","","","","","Memory","false","null","","","",""
"","null","html-keyboard-response","175","2.0.0","312788","prsues5texd","cheetah","null","<div style=""font-size:60px; color: black;"">+</div>","","","","","","","","","","",""
"","847","image-keyboard-response","176","2.0.0","314790","prsues5texd","cheetah"," ","stimuli\EXEMPLAR\USED\Eremover1.jpg","","","","","Memory","true","true","","","",""
"","null","html-keyboard-response","177","2.0.0","315293","prsues5texd","cheetah","null","<div style=""font-size:60px; color: green;"">+</div>","","","","","","","","","","",""
"","null","image-keyboard-response","178","2.0.0","317297","prsues5texd","cheetah","null","stimuli\EXEMPLAR\USED\Efishbowl2.jpg","","","","","Memory","false","null","","","",""
"","null","html-keyboard-response","179","2.0.0","317800","prsues5texd","cheetah","null","<div style=""font-size:60px; color: black;"">+</div>","","","","","","","","","","",""
"","null","image-keyboard-response","180","2.0.0","319804","prsues5texd","cheetah","null","stimuli\EXEMPLAR\USED\Ebunny2.jpg","","","","","Memory","false","null","","","",""
"","null","html-keyboard-response","181","2.0.0","320307","prsues5texd","cheetah","null","<div style=""font-size:60px; color: black;"">+</div>","","","","","","","","","","",""
"","null","image-keyboard-response","182","2.0.0","322310","prsues5texd","cheetah","null","stimuli\STATE\USED\Sapplesredbasket1.JPG","","","","","Memory","false","null","","","",""
"","null","html-keyboard-response","183","2.0.0","322813","prsues5texd","cheetah","null","<div style=""font-size:60px; color: black;"">+</div>","","","","","","","","","","",""
"","null","image-keyboard-response","184","2.0.0","324816","prsues5texd","cheetah","null","stimuli\EXEMPLAR\USED\Echeeses1.jpg","","","","","Memory","false","null","","","",""
"","null","html-keyboard-response","185","2.0.0","325319","prsues5texd","cheetah","null","<div style=""font-size:60px; color: black;"">+</div>","","","","","","","","","","",""
"","null","image-keyboard-response","186","2.0.0","327322","prsues5texd","cheetah","null","stimuli\STATE\USED\Sclipboard1.jpg","","","","","Memory","false","null","","","",""
"","null","html-keyboard-response","187","2.0.0","327825","prsues5texd","cheetah","null","<div style=""font-size:60px; color: black;"">+</div>","","","","","","","","","","",""
"","765","image-keyboard-response","188","2.0.0","329829","prsues5texd","cheetah"," ","stimuli\EXEMPLAR\USED\Ebunny2.jpg","","","","","Memory","true","true","","","",""
"","null","html-keyboard-response","189","2.0.0","330331","prsues5texd","cheetah","null","<div style=""font-size:60px; color: green;"">+</div>","","","","","","","","","","",""
"","null","image-keyboard-response","190","2.0.0","332335","prsues5texd","cheetah","null","stimuli\STATE\USED\Sgiftbox1.jpg","","","","","Memory","false","null","","","",""
"","null","html-keyboard-response","191","2.0.0","332837","prsues5texd","cheetah","null","<div style=""font-size:60px; color: black;"">+</div>","","","","","","","","","","",""
"","null","image-keyboard-response","192","2.0.0","334842","prsues5texd","cheetah","null","stimuli\STATE\USED\Sbox1.jpg","","","","","Memory","false","null","","","",""
"","null","html-keyboard-response","193","2.0.0","335344","prsues5texd","cheetah","null","<div style=""font-size:60px; color: black;"">+</div>","","","","","","","","","","",""
"","null","image-keyboard-response","194","2.0.0","337348","prsues5texd","cheetah","null","stimuli\EXEMPLAR\USED\Erabbit2.jpg","","","","","Memory","false","null","","","",""
"","null","html-keyboard-response","195","2.0.0","337851","prsues5texd","cheetah","null","<div style=""font-size:60px; color: black;"">+</div>","","","","","","","","","","",""
"","null","image-keyboard-response","196","2.0.0","339853","prsues5texd","cheetah","null","stimuli\STATE\USED\Spotpan2.JPG","","","","","Memory","false","null","","","",""
"","null","html-keyboard-response","197","2.0.0","340355","prsues5texd","cheetah","null","<div style=""font-size:60px; color: black;"">+</div>","","","","","","","","","","",""
"","null","image-keyboard-response","198","2.0.0","342356","prsues5texd","cheetah","null","stimuli\STATE\USED\Stiger2.jpg","","","","","Memory","false","null","","","",""
"","null","html-keyboard-response","199","2.0.0","342858","prsues5texd","cheetah","null","<div style=""font-size:60px; color: black;"">+</div>","","","","","","","","","","",""
"","null","image-keyboard-response","200","2.0.0","344859","prsues5texd","cheetah","null","stimuli\STATE\USED\Sscales1.jpg","","","","","Memory","false","null","","","",""
"","null","html-keyboard-response","201","2.0.0","345361","prsues5texd","cheetah","null","<div style=""font-size:60px; color: black;"">+</div>","","","","","","","","","","",""
"","null","image-keyboard-response","202","2.0.0","347363","prsues5texd","cheetah","null","stimuli\STATE\USED\Sbooks2.JPG","","","","","Memory","false","null","","","",""
"","null","html-keyboard-response","203","2.0.0","347870","prsues5texd","cheetah","null","<div style=""font-size:60px; color: black;"">+</div>","","","","","","","","","","",""
"","null","image-keyboard-response","204","2.0.0","349871","prsues5texd","cheetah","null","stimuli\STATE\USED\Stypewriter1.jpg","","","","","Memory","false","null","","","",""
"","null","html-keyboard-response","205","2.0.0","350373","prsues5texd","cheetah","null","<div style=""font-size:60px; color: black;"">+</div>","","","","","","","","","","",""
"","1233","image-keyboard-response","206","2.0.0","352376","prsues5texd","cheetah"," ","stimuli\STATE\USED\Shandmirror2.jpg","","","","","Memory","false","false","","","",""
"","null","html-keyboard-response","207","2.0.0","352877","prsues5texd","cheetah","null","<div style=""font-size:60px; color: red;"">+</div>","","","","","","","","","","",""
"","null","image-keyboard-response","208","2.0.0","354878","prsues5texd","cheetah","null","stimuli\STATE\USED\Spestle1.jpg","","","","","Memory","false","null","","","",""
"","null","html-keyboard-response","209","2.0.0","355381","prsues5texd","cheetah","null","<div style=""font-size:60px; color: black;"">+</div>","","","","","","","","","","",""
"","2021","html-button-response","210","2.0.0","357402","prsues5texd","cheetah","0","Are you still there?","","","","","Attention Check","","","","","",""
"","null","image-keyboard-response","211","2.0.0","359404","prsues5texd","cheetah","null","stimuli\STATE\USED\Shairbrush1.jpg","","","","","Memory","false","null","","","",""
"","null","html-keyboard-response","212","2.0.0","359906","prsues5texd","cheetah","null","<div style=""font-size:60px; color: black;"">+</div>","","","","","","","","","","",""
"","737","image-keyboard-response","213","2.0.0","361907","prsues5texd","cheetah"," ","stimuli\STATE\USED\Stypewriter1.jpg","","","","","Memory","true","true","","","",""
"","null","html-keyboard-response","214","2.0.0","362408","prsues5texd","cheetah","null","<div style=""font-size:60px; color: green;"">+</div>","","","","","","","","","","",""
"","null","image-keyboard-response","215","2.0.0","364411","prsues5texd","cheetah","null","stimuli\EXEMPLAR\USED\Ehelmet1.jpg","","","","","Memory","false","null","","","",""
"","null","html-keyboard-response","216","2.0.0","364913","prsues5texd","cheetah","null","<div style=""font-size:60px; color: black;"">+</div>","","","","","","","","","","",""
"","null","image-keyboard-response","217","2.0.0","366916","prsues5texd","cheetah","null","stimuli\EXEMPLAR\USED\Ecake2.jpg","","","","","Memory","false","null","","","",""
"","null","html-keyboard-response","218","2.0.0","367418","prsues5texd","cheetah","null","<div style=""font-size:60px; color: black;"">+</div>","","","","","","","","","","",""
"","null","image-keyboard-response","219","2.0.0","369421","prsues5texd","cheetah","null","stimuli\EXEMPLAR\USED\Emedal1.jpg","","","","","Memory","false","null","","","",""
"","null","html-keyboard-response","220","2.0.0","369924","prsues5texd","cheetah","null","<div style=""font-size:60px; color: black;"">+</div>","","","","","","","","","","",""
"","null","image-keyboard-response","221","2.0.0","371926","prsues5texd","cheetah","null","stimuli\EXEMPLAR\USED\Etoykeys1.jpg","","","","","Memory","false","null","","","",""
"","null","html-keyboard-response","222","2.0.0","372429","prsues5texd","cheetah","null","<div style=""font-size:60px; color: black;"">+</div>","","","","","","","","","","",""
"","null","image-keyboard-response","223","2.0.0","374432","prsues5texd","cheetah","null","stimuli\STATE\USED\Sboxwhite1.jpg","","","","","Memory","false","null","","","",""
"","null","html-keyboard-response","224","2.0.0","374935","prsues5texd","cheetah","null","<div style=""font-size:60px; color: black;"">+</div>","","","","","","","","","","",""
"","null","image-keyboard-response","225","2.0.0","376937","prsues5texd","cheetah","null","stimuli\EXEMPLAR\USED\Elei2.jpg","","","","","Memory","false","null","","","",""
"","null","html-keyboard-response","226","2.0.0","377438","prsues5texd","cheetah","null","<div style=""font-size:60px; color: black;"">+</div>","","","","","","","","","","",""
"","null","image-keyboard-response","227","2.0.0","379441","prsues5texd","cheetah","null","stimuli\EXEMPLAR\USED\Ebonzai2.jpg","","","","","Memory","false","null","","","",""
"","null","html-keyboard-response","228","2.0.0","379944","prsues5texd","cheetah","null","<div style=""font-size:60px; color: black;"">+</div>","","","","","","","","","","",""
"","693","image-keyboard-response","229","2.0.0","381947","prsues5texd","cheetah"," ","stimuli\EXEMPLAR\USED\Etoykeys1.jpg","","","","","Memory","true","true","","","",""
"","null","html-keyboard-response","230","2.0.0","382449","prsues5texd","cheetah","null","<div style=""font-size:60px; color: green;"">+</div>","","","","","","","","","","",""
"","null","image-keyboard-response","231","2.0.0","384452","prsues5texd","cheetah","null","stimuli\EXEMPLAR\USED\Eholepunch1.jpg","","","","","Memory","false","null","","","",""
"","null","html-keyboard-response","232","2.0.0","384954","prsues5texd","cheetah","null","<div style=""font-size:60px; color: black;"">+</div>","","","","","","","","","","",""
"","null","image-keyboard-response","233","2.0.0","386957","prsues5texd","cheetah","null","stimuli\STATE\USED\Sdoughhands2.jpg","","","","","Memory","false","null","","","",""
"","null","html-keyboard-response","234","2.0.0","387459","prsues5texd","cheetah","null","<div style=""font-size:60px; color: black;"">+</div>","","","","","","","","","","",""
"","null","image-keyboard-response","235","2.0.0","389462","prsues5texd","cheetah","null","stimuli\EXEMPLAR\USED\Ebracelet1.jpg","","","","","Memory","false","null","","","",""
"","null","html-keyboard-response","236","2.0.0","389965","prsues5texd","cheetah","null","<div style=""font-size:60px; color: black;"">+</div>","","","","","","","","","","",""
"","null","image-keyboard-response","237","2.0.0","391968","prsues5texd","cheetah","null","stimuli\EXEMPLAR\USED\Estarfish2.jpg","","","","","Memory","false","null","","","",""
"","null","html-keyboard-response","238","2.0.0","392470","prsues5texd","cheetah","null","<div style=""font-size:60px; color: black;"">+</div>","","","","","","","","","","",""
"","null","image-keyboard-response","239","2.0.0","394473","prsues5texd","cheetah","null","stimuli\EXEMPLAR\USED\Emitt1.jpg","","","","","Memory","false","null","","","",""
"","null","html-keyboard-response","240","2.0.0","394975","prsues5texd","cheetah","null","<div style=""font-size:60px; color: black;"">+</div>","","","","","","","","","","",""
"","null","image-keyboard-response","241","2.0.0","396979","prsues5texd","cheetah","null","stimuli\EXEMPLAR\USED\Erazor2.jpg","","","","","Memory","false","null","","","",""
"","null","html-keyboard-response","242","2.0.0","397482","prsues5texd","cheetah","null","<div style=""font-size:60px; color: black;"">+</div>","","","","","","","","","","",""
"","null","image-keyboard-response","243","2.0.0","399485","prsues5texd","cheetah","null","stimuli\STATE\USED\Sflask1.jpg","","","","","Memory","false","null","","","",""
"","null","html-keyboard-response","244","2.0.0","399988","prsues5texd","cheetah","null","<div style=""font-size:60px; color: black;"">+</div>","","","","","","","","","","",""
"","null","image-keyboard-response","245","2.0.0","401991","prsues5texd","cheetah","null","stimuli\STATE\USED\Srainbowslice2.jpg","","","","","Memory","false","null","","","",""
"","null","html-keyboard-response","246","2.0.0","402494","prsues5texd","cheetah","null","<div style=""font-size:60px; color: black;"">+</div>","","","","","","","","","","",""
"","1003","image-keyboard-response","247","2.0.0","404497","prsues5texd","cheetah"," ","stimuli\EXEMPLAR\USED\Emitt1.jpg","","","","","Memory","true","true","","","",""
"","null","html-keyboard-response","248","2.0.0","405000","prsues5texd","cheetah","null","<div style=""font-size:60px; color: green;"">+</div>","","","","","","","","","","",""
"","null","image-keyboard-response","249","2.0.0","407003","prsues5texd","cheetah","null","stimuli\STATE\USED\Sbabytoy1.JPG","","","","","Memory","false","null","","","",""
"","null","html-keyboard-response","250","2.0.0","407506","prsues5texd","cheetah","null","<div style=""font-size:60px; color: black;"">+</div>","","","","","","","","","","",""
"","null","image-keyboard-response","251","2.0.0","409510","prsues5texd","cheetah","null","stimuli\EXEMPLAR\USED\Emuffler2.jpg","","","","","Memory","false","null","","","",""
"","null","html-keyboard-response","252","2.0.0","410012","prsues5texd","cheetah","null","<div style=""font-size:60px; color: black;"">+</div>","","","","","","","","","","",""
"","null","image-keyboard-response","253","2.0.0","412016","prsues5texd","cheetah","null","stimuli\EXEMPLAR\USED\Ehorn1.jpg","","","","","Memory","false","null","","","",""
"","null","html-keyboard-response","254","2.0.0","412519","prsues5texd","cheetah","null","<div style=""font-size:60px; color: black;"">+</div>","","","","","","","","","","",""
"","null","image-keyboard-response","255","2.0.0","414522","prsues5texd","cheetah","null","stimuli\STATE\USED\Spiggybank2.jpg","","","","","Memory","false","null","","","",""
"","null","html-keyboard-response","256","2.0.0","415025","prsues5texd","cheetah","null","<div style=""font-size:60px; color: black;"">+</div>","","","","","","","","","","",""
"","743","image-keyboard-response","257","2.0.0","417028","prsues5texd","cheetah"," ","stimuli\STATE\USED\Sbabytoy1.JPG","","","","","Memory","true","true","","","",""
"","null","html-keyboard-response","258","2.0.0","417531","prsues5texd","cheetah","null","<div style=""font-size:60px; color: green;"">+</div>","","","","","","","","","","",""
"","null","image-keyboard-response","259","2.0.0","419535","prsues5texd","cheetah","null","stimuli\STATE\USED\Sstoplight1.jpg","","","","","Memory","false","null","","","",""
"","null","html-keyboard-response","260","2.0.0","420038","prsues5texd","cheetah","null","<div style=""font-size:60px; color: black;"">+</div>","","","","","","","","","","",""
"","null","image-keyboard-response","261","2.0.0","422042","prsues5texd","cheetah","null","stimuli\STATE\USED\Sbelt2.jpg","","","","","Memory","false","null","","","",""
"","null","html-keyboard-response","262","2.0.0","422544","prsues5texd","cheetah","null","<div style=""font-size:60px; color: black;"">+</div>","","","","","","","","","","",""
"","null","image-keyboard-response","263","2.0.0","424547","prsues5texd","cheetah","null","stimuli\EXEMPLAR\USED\Edinosaur2.jpg","","","","","Memory","false","null","","","",""
"","null","html-keyboard-response","264","2.0.0","425050","prsues5texd","cheetah","null","<div style=""font-size:60px; color: black;"">+</div>","","","","","","","","","","",""
"","null","image-keyboard-response","265","2.0.0","427054","prsues5texd","cheetah","null","stimuli\EXEMPLAR\USED\Ebinoculars1.jpg","","","","","Memory","false","null","","","",""
"","null","html-keyboard-response","266","2.0.0","427555","prsues5texd","cheetah","null","<div style=""font-size:60px; color: black;"">+</div>","","","","","","","","","","",""
"","null","image-keyboard-response","267","2.0.0","429558","prsues5texd","cheetah","null","stimuli\STATE\USED\Sseats2.jpg","","","","","Memory","false","null","","","",""
"","null","html-keyboard-response","268","2.0.0","430061","prsues5texd","cheetah","null","<div style=""font-size:60px; color: black;"">+</div>","","","","","","","","","","",""
"","null","image-keyboard-response","269","2.0.0","432065","prsues5texd","cheetah","null","stimuli\EXEMPLAR\USED\Esuitcase1.jpg","","","","","Memory","false","null","","","",""
"","null","html-keyboard-response","270","2.0.0","432567","prsues5texd","cheetah","null","<div style=""font-size:60px; color: black;"">+</div>","","","","","","","","","","",""
"","null","image-keyboard-response","271","2.0.0","434571","prsues5texd","cheetah","null","stimuli\STATE\USED\Srhino2.jpg","","","","","Memory","false","null","","","",""
"","null","html-keyboard-response","272","2.0.0","435074","prsues5texd","cheetah","null","<div style=""font-size:60px; color: black;"">+</div>","","","","","","","","","","",""
"","null","image-keyboard-response","273","2.0.0","437078","prsues5texd","cheetah","null","stimuli\EXEMPLAR\USED\Etrain1.jpg","","","","","Memory","false","null","","","",""
"","null","html-keyboard-response","274","2.0.0","437580","prsues5texd","cheetah","null","<div style=""font-size:60px; color: black;"">+</div>","","","","","","","","","","",""
"","null","image-keyboard-response","275","2.0.0","439582","prsues5texd","cheetah","null","stimuli\STATE\USED\Sphoneold1.jpg","","","","","Memory","false","null","","","",""
"","null","html-keyboard-response","276","2.0.0","440084","prsues5texd","cheetah","null","<div style=""font-size:60px; color: black;"">+</div>","","","","","","","","","","",""
"","793","image-keyboard-response","277","2.0.0","442087","prsues5texd","cheetah"," ","stimuli\EXEMPLAR\USED\Esuitcase1.jpg","","","","","Memory","true","true","","","",""
"","null","html-keyboard-response","278","2.0.0","442589","prsues5texd","cheetah","null","<div style=""font-size:60px; color: green;"">+</div>","","","","","","","","","","",""
"","null","image-keyboard-response","279","2.0.0","444592","prsues5texd","cheetah","null","stimuli\EXEMPLAR\USED\Ehotairballoon2.jpg","","","","","Memory","false","null","","","",""
"","null","html-keyboard-response","280","2.0.0","445095","prsues5texd","cheetah","null","<div style=""font-size:60px; color: black;"">+</div>","","","","","","","","","","",""
"","null","image-keyboard-response","281","2.0.0","447098","prsues5texd","cheetah","null","stimuli\STATE\USED\Sdishes1.JPG","","","","","Memory","false","null","","","",""
"","null","html-keyboard-response","282","2.0.0","447600","prsues5texd","cheetah","null","<div style=""font-size:60px; color: black;"">+</div>","","","","","","","","","","",""
"","null","image-keyboard-response","283","2.0.0","449603","prsues5texd","cheetah","null","stimuli\STATE\USED\Sumbrella2.jpg","","","","","Memory","false","null","","","",""
"","null","html-keyboard-response","284","2.0.0","450105","prsues5texd","cheetah","null","<div style=""font-size:60px; color: black;"">+</div>","","","","","","","","","","",""
"","null","image-keyboard-response","285","2.0.0","452109","prsues5texd","cheetah","null","stimuli\EXEMPLAR\USED\Epiano2.jpg","","","","","Memory","false","null","","","",""
"","null","html-keyboard-response","286","2.0.0","452611","prsues5texd","cheetah","null","<div style=""font-size:60px; color: black;"">+</div>","","","","","","","","","","",""
"","null","image-keyboard-response","287","2.0.0","454614","prsues5texd","cheetah","null","stimuli\EXEMPLAR\USED\Etoywrench1.jpg","","","","","Memory","false","null","","","",""
"","null","html-keyboard-response","288","2.0.0","455117","prsues5texd","cheetah","null","<div style=""font-size:60px; color: black;"">+</div>","","","","","","","","","","",""
"","null","image-keyboard-response","289","2.0.0","457120","prsues5texd","cheetah","null","stimuli\EXEMPLAR\USED\Etongs1.jpg","","","","","Memory","false","null","","","",""
"","null","html-keyboard-response","290","2.0.0","457623","prsues5texd","cheetah","null","<div style=""font-size:60px; color: black;"">+</div>","","","","","","","","","","",""
"","null","image-keyboard-response","291","2.0.0","459626","prsues5texd","cheetah","null","stimuli\STATE\USED\Sphone1.JPG","","","","","Memory","false","null","","","",""
"","null","html-keyboard-response","292","2.0.0","460128","prsues5texd","cheetah","null","<div style=""font-size:60px; color: black;"">+</div>","","","","","","","","","","",""
"","1211","image-keyboard-response","293","2.0.0","462131","prsues5texd","cheetah"," ","stimuli\EXEMPLAR\USED\Epiano2.jpg","","","","","Memory","true","true","","","",""
"","null","html-keyboard-response","294","2.0.0","462633","prsues5texd","cheetah","null","<div style=""font-size:60px; color: green;"">+</div>","","","","","","","","","","",""
"","null","image-keyboard-response","295","2.0.0","464635","prsues5texd","cheetah","null","stimuli\EXEMPLAR\USED\Etoyplane2.jpg","","","","","Memory","false","null","","","",""
"","null","html-keyboard-response","296","2.0.0","465137","prsues5texd","cheetah","null","<div style=""font-size:60px; color: black;"">+</div>","","","","","","","","","","",""
"","null","image-keyboard-response","297","2.0.0","467141","prsues5texd","cheetah","null","stimuli\EXEMPLAR\USED\Eturtle2.jpg","","","","","Memory","false","null","","","",""
"","null","html-keyboard-response","298","2.0.0","467643","prsues5texd","cheetah","null","<div style=""font-size:60px; color: black;"">+</div>","","","","","","","","","","",""
"","null","image-keyboard-response","299","2.0.0","469646","prsues5texd","cheetah","null","stimuli\EXEMPLAR\USED\Eglobe1.jpg","","","","","Memory","false","null","","","",""
"","null","html-keyboard-response","300","2.0.0","470148","prsues5texd","cheetah","null","<div style=""font-size:60px; color: black;"">+</div>","","","","","","","","","","",""
"","null","image-keyboard-response","301","2.0.0","472151","prsues5texd","cheetah","null","stimuli\STATE\USED\Ssweater1.jpg","","","","","Memory","false","null","","","",""
"","null","html-keyboard-response","302","2.0.0","472654","prsues5texd","cheetah","null","<div style=""font-size:60px; color: black;"">+</div>","","","","","","","","","","",""
"","null","image-keyboard-response","303","2.0.0","474658","prsues5texd","cheetah","null","stimuli\STATE\USED\Scontainer2.JPG","","","","","Memory","false","null","","","",""
"","null","html-keyboard-response","304","2.0.0","475161","prsues5texd","cheetah","null","<div style=""font-size:60px; color: black;"">+</div>","","","","","","","","","","",""
"","null","image-keyboard-response","305","2.0.0","477164","prsues5texd","cheetah","null","stimuli\EXEMPLAR\USED\Eheadphones2.jpg","","","","","Memory","false","null","","","",""
"","null","html-keyboard-response","306","2.0.0","477667","prsues5texd","cheetah","null","<div style=""font-size:60px; color: black;"">+</div>","","","","","","","","","","",""
"","null","image-keyboard-response","307","2.0.0","479669","prsues5texd","cheetah","null","stimuli\STATE\USED\Spumpkinpie1.jpg","","","","","Memory","false","null","","","",""
"","null","html-keyboard-response","308","2.0.0","480172","prsues5texd","cheetah","null","<div style=""font-size:60px; color: black;"">+</div>","","","","","","","","","","",""
"","null","image-keyboard-response","309","2.0.0","482175","prsues5texd","cheetah","null","stimuli\STATE\USED\Sscanner1.JPG","","","","","Memory","false","null","","","",""
"","null","html-keyboard-response","310","2.0.0","482677","prsues5texd","cheetah","null","<div style=""font-size:60px; color: black;"">+</div>","","","","","","","","","","",""
"","731","image-keyboard-response","311","2.0.0","484680","prsues5texd","cheetah"," ","stimuli\STATE\USED\Scontainer2.JPG","","","","","Memory","true","true","","","",""
"","null","html-keyboard-response","312","2.0.0","485183","prsues5texd","cheetah","null","<div style=""font-size:60px; color: green;"">+</div>","","","","","","","","","","",""
"","2341","html-button-response","313","2.0.0","487526","prsues5texd","cheetah","0","Are you still there?","","","","","Attention Check","","","","","",""
"","null","image-keyboard-response","314","2.0.0","489528","prsues5texd","cheetah","null","stimuli\STATE\USED\Slaptop2.JPG","","","","","Memory","false","null","","","",""
"","null","html-keyboard-response","315","2.0.0","490031","prsues5texd","cheetah","null","<div style=""font-size:60px; color: black;"">+</div>","","","","","","","","","","",""
"","null","image-keyboard-response","316","2.0.0","492033","prsues5texd","cheetah","null","stimuli\STATE\USED\Sskull1.jpg","","","","","Memory","false","null","","","",""
"","null","html-keyboard-response","317","2.0.0","492536","prsues5texd","cheetah","null","<div style=""font-size:60px; color: black;"">+</div>","","","","","","","","","","",""
"","null","image-keyboard-response","318","2.0.0","494539","prsues5texd","cheetah","null","stimuli\EXEMPLAR\USED\Eframe1.jpg","","","","","Memory","false","null","","","",""
"","null","html-keyboard-response","319","2.0.0","495042","prsues5texd","cheetah","null","<div style=""font-size:60px; color: black;"">+</div>","","","","","","","","","","",""
"","null","image-keyboard-response","320","2.0.0","497045","prsues5texd","cheetah","null","stimuli\STATE\USED\Smetronome2.JPG","","","","","Memory","false","null","","","",""
"","null","html-keyboard-response","321","2.0.0","497547","prsues5texd","cheetah","null","<div style=""font-size:60px; color: black;"">+</div>","","","","","","","","","","",""
"","null","image-keyboard-response","322","2.0.0","499551","prsues5texd","cheetah","null","stimuli\STATE\USED\Sschoolbag1.JPG","","","","","Memory","false","null","","","",""
"","null","html-keyboard-response","323","2.0.0","500053","prsues5texd","cheetah","null","<div style=""font-size:60px; color: black;"">+</div>","","","","","","","","","","",""
"","null","image-keyboard-response","324","2.0.0","502057","prsues5texd","cheetah","null","stimuli\EXEMPLAR\USED\Eteapot2.JPG","","","","","Memory","false","null","","","",""
"","null","html-keyboard-response","325","2.0.0","502560","prsues5texd","cheetah","null","<div style=""font-size:60px; color: black;"">+</div>","","","","","","","","","","",""
"","null","image-keyboard-response","326","2.0.0","504563","prsues5texd","cheetah","null","stimuli\STATE\USED\Spicnicbasket1.jpg","","","","","Memory","false","null","","","",""
"","null","html-keyboard-response","327","2.0.0","505066","prsues5texd","cheetah","null","<div style=""font-size:60px; color: black;"">+</div>","","","","","","","","","","",""
"","null","image-keyboard-response","328","2.0.0","507070","prsues5texd","cheetah","null","stimuli\EXEMPLAR\USED\Emoney2.jpg","","","","","Memory","false","null","","","",""
"","null","html-keyboard-response","329","2.0.0","507573","prsues5texd","cheetah","null","<div style=""font-size:60px; color: black;"">+</div>","","","","","","","","","","",""
"","null","image-keyboard-response","330","2.0.0","509576","prsues5texd","cheetah","null","stimuli\STATE\USED\Sbureau2.JPG","","","","","Memory","false","null","","","",""
"","null","html-keyboard-response","331","2.0.0","510079","prsues5texd","cheetah","null","<div style=""font-size:60px; color: black;"">+</div>","","","","","","","","","","",""
"","null","image-keyboard-response","332","2.0.0","512082","prsues5texd","cheetah","null","stimuli\STATE\USED\Spolarbear1.jpg","","","","","Memory","false","null","","","",""
"","null","html-keyboard-response","333","2.0.0","512585","prsues5texd","cheetah","null","<div style=""font-size:60px; color: black;"">+</div>","","","","","","","","","","",""
"","732","image-keyboard-response","334","2.0.0","514588","prsues5texd","cheetah"," ","stimuli\STATE\USED\Spicnicbasket1.jpg","","","","","Memory","true","true","","","",""
"","null","html-keyboard-response","335","2.0.0","515091","prsues5texd","cheetah","null","<div style=""font-size:60px; color: green;"">+</div>","","","","","","","","","","",""
"","null","image-keyboard-response","336","2.0.0","517095","prsues5texd","cheetah","null","stimuli\EXEMPLAR\USED\Ekayak2.jpg","","","","","Memory","false","null","","","",""
"","null","html-keyboard-response","337","2.0.0","517597","prsues5texd","cheetah","null","<div style=""font-size:60px; color: black;"">+</div>","","","","","","","","","","",""
"","null","image-keyboard-response","338","2.0.0","519600","prsues5texd","cheetah","null","stimuli\EXEMPLAR\USED\Esantahat2.jpg","","","","","Memory","false","null","","","",""
"","null","html-keyboard-response","339","2.0.0","520102","prsues5texd","cheetah","null","<div style=""font-size:60px; color: black;"">+</div>","","","","","","","","","","",""
"","null","image-keyboard-response","340","2.0.0","522106","prsues5texd","cheetah","null","stimuli\EXEMPLAR\USED\Etoyhand2.jpg","","","","","Memory","false","null","","","",""
"","null","html-keyboard-response","341","2.0.0","522608","prsues5texd","cheetah","null","<div style=""font-size:60px; color: black;"">+</div>","","","","","","","","","","",""
"","null","image-keyboard-response","342","2.0.0","524620","prsues5texd","cheetah","null","stimuli\EXEMPLAR\USED\Epeppers1.jpg","","","","","Memory","false","null","","","",""
"","null","html-keyboard-response","343","2.0.0","525122","prsues5texd","cheetah","null","<div style=""font-size:60px; color: black;"">+</div>","","","","","","","","","","",""
"","null","image-keyboard-response","344","2.0.0","527125","prsues5texd","cheetah","null","stimuli\STATE\USED\Siron2.jpg","","","","","Memory","false","null","","","",""
"","null","html-keyboard-response","345","2.0.0","527627","prsues5texd","cheetah","null","<div style=""font-size:60px; color: black;"">+</div>","","","","","","","","","","",""
"","null","image-keyboard-response","346","2.0.0","529630","prsues5texd","cheetah","null","stimuli\STATE\USED\Spie1.JPG","","","","","Memory","false","null","","","",""
"","null","html-keyboard-response","347","2.0.0","530132","prsues5texd","cheetah","null","<div style=""font-size:60px; color: black;"">+</div>","","","","","","","","","","",""
"","3575","html-keyboard-response","348","2.0.0","533708","prsues5texd","cheetah"," ","
          <p>In the next part of this experiment, you will see 2 images. Please select the image that you recall from the image stream.</p>
          <p>You will also rate your confidence for each image you recall.</p>
          <p>Press any key to start.</p>
        ","","","","","","","","","","",""
"","5401","html-button-response","349","2.0.0","539110","prsues5texd","cheetah","0","Which of these items did you see before?","","","","","Test","","true","[""stimuli\\EXEMPLAR\\USED\\Emitt1.jpg"",""stimuli\\EXEMPLAR\\USED\\Emitt2.jpg""]","stimuli\EXEMPLAR\USED\Emitt1.jpg","stimuli\EXEMPLAR\USED\Emitt1.jpg",""
"","2920","image-slider-response","350","2.0.0","542033","prsues5texd","cheetah","5","stimuli\EXEMPLAR\USED\Emitt1.jpg","","","","","","","","","","","3"
"","7225","html-button-response","351","2.0.0","549259","prsues5texd","cheetah","1","Which of these items did you see before?","","","","","Test","","false","[""stimuli\\STATE\\USED\\Srhino2.jpg"",""stimuli\\STATE\\USED\\Srhino1.jpg""]","stimuli\STATE\USED\Srhino2.jpg","stimuli\STATE\USED\Srhino1.jpg",""
"","3094","image-slider-response","352","2.0.0","552355","prsues5texd","cheetah","1","stimuli\STATE\USED\Srhino1.jpg","","","","","","","","","","","3"
"","3508","html-button-response","353","2.0.0","555865","prsues5texd","cheetah","0","Which of these items did you see before?","","","","","Test","","true","[""stimuli\\EXEMPLAR\\USED\\Eladder1.jpg"",""stimuli\\EXEMPLAR\\USED\\Eladder2.jpg""]","stimuli\EXEMPLAR\USED\Eladder1.jpg","stimuli\EXEMPLAR\USED\Eladder1.jpg",""
"","1622","image-slider-response","354","2.0.0","557489","prsues5texd","cheetah","5","stimuli\EXEMPLAR\USED\Eladder1.jpg","","","","","","","","","","","3"
"","855","html-button-response","355","2.0.0","558346","prsues5texd","cheetah","0","Which of these items did you see before?","","","","","Test","","true","[""stimuli\\EXEMPLAR\\USED\\Epeppers1.jpg"",""stimuli\\EXEMPLAR\\USED\\Epeppers2.jpg""]","stimuli\EXEMPLAR\USED\Epeppers1.jpg","stimuli\EXEMPLAR\USED\Epeppers1.jpg",""
"","1710","image-slider-response","356","2.0.0","560058","prsues5texd","cheetah","5","stimuli\EXEMPLAR\USED\Epeppers1.jpg","","","","","","","","","","","3"
"","1456","html-button-response","357","2.0.0","561515","prsues5texd","cheetah","1","Which of these items did you see before?","","","","","Test","","true","[""stimuli\\STATE\\USED\\Ssweater2.jpg"",""stimuli\\STATE\\USED\\Ssweater1.jpg""]","stimuli\STATE\USED\Ssweater1.jpg","stimuli\STATE\USED\Ssweater1.jpg",""
"","1589","image-slider-response","358","2.0.0","563107","prsues5texd","cheetah","5","stimuli\STATE\USED\Ssweater1.jpg","","","","","","","","","","","3"
"","961","html-button-response","359","2.0.0","564070","prsues5texd","cheetah","1","Which of these items did you see before?","","","","","Test","","true","[""stimuli\\EXEMPLAR\\USED\\Etoyplane1.jpg"",""stimuli\\EXEMPLAR\\USED\\Etoyplane2.jpg""]","stimuli\EXEMPLAR\USED\Etoyplane2.jpg","stimuli\EXEMPLAR\USED\Etoyplane2.jpg",""
"","1456","image-slider-response","360","2.0.0","565528","prsues5texd","cheetah","5","stimuli\EXEMPLAR\USED\Etoyplane2.jpg","","","","","","","","","","","3"
"","882","html-button-response","361","2.0.0","566412","prsues5texd","cheetah","0","Which of these items did you see before?","","","","","Test","","true","[""stimuli\\STATE\\USED\\Spiggybank2.jpg"",""stimuli\\STATE\\USED\\Spiggybank1.jpg""]","stimuli\STATE\USED\Spiggybank2.jpg","stimuli\STATE\USED\Spiggybank2.jpg",""
"","2440","image-slider-response","362","2.0.0","568855","prsues5texd","cheetah","5","stimuli\STATE\USED\Spiggybank2.jpg","","","","","","","","","","","3"
"","2878","html-button-response","363","2.0.0","571734","prsues5texd","cheetah","0","Which of these items did you see before?","","","","","Test","","true","[""stimuli\\EXEMPLAR\\USED\\Ewheelchair1.jpg"",""stimuli\\EXEMPLAR\\USED\\Ewheelchair2.jpg""]","stimuli\EXEMPLAR\USED\Ewheelchair1.jpg","stimuli\EXEMPLAR\USED\Ewheelchair1.jpg",""
"","1646","image-slider-response","364","2.0.0","573382","prsues5texd","cheetah","1","stimuli\EXEMPLAR\USED\Ewheelchair1.jpg","","","","","","","","","","","3"
"","1060","html-button-response","365","2.0.0","574443","prsues5texd","cheetah","0","Which of these items did you see before?","","","","","Test","","true","[""stimuli\\STATE\\USED\\Sgiftbag2.jpg"",""stimuli\\STATE\\USED\\Sgiftbag1.jpg""]","stimuli\STATE\USED\Sgiftbag2.jpg","stimuli\STATE\USED\Sgiftbag2.jpg",""
"","2368","image-slider-response","366","2.0.0","576814","prsues5texd","cheetah","5","stimuli\STATE\USED\Sgiftbag2.jpg","","","","","","","","","","","3"
"","895","html-button-response","367","2.0.0","577710","prsues5texd","cheetah","0","Which of these items did you see before?","","","","","Test","","true","[""stimuli\\EXEMPLAR\\USED\\Eicecream2.jpg"",""stimuli\\EXEMPLAR\\USED\\Eicecream1.jpg""]","stimuli\EXEMPLAR\USED\Eicecream2.jpg","stimuli\EXEMPLAR\USED\Eicecream2.jpg",""
"","1190","image-slider-response","368","2.0.0","578903","prsues5texd","cheetah","5","stimuli\EXEMPLAR\USED\Eicecream2.jpg","","","","","","","","","","","3"
"","1388","html-button-response","369","2.0.0","580292","prsues5texd","cheetah","1","Which of these items did you see before?","","","","","Test","","true","[""stimuli\\EXEMPLAR\\USED\\Epotatochips2.jpg"",""stimuli\\EXEMPLAR\\USED\\Epotatochips1.jpg""]","stimuli\EXEMPLAR\USED\Epotatochips1.jpg","stimuli\EXEMPLAR\USED\Epotatochips1.jpg",""
"","1720","image-slider-response","370","2.0.0","582014","prsues5texd","cheetah","5","stimuli\EXEMPLAR\USED\Epotatochips1.jpg","","","","","","","","","","","3"
"","1550","html-button-response","371","2.0.0","583565","prsues5texd","cheetah","0","Which of these items did you see before?","","","","","Test","","true","[""stimuli\\EXEMPLAR\\USED\\Ehotairballoon2.jpg"",""stimuli\\EXEMPLAR\\USED\\Ehotairballoon1.jpg""]","stimuli\EXEMPLAR\USED\Ehotairballoon2.jpg","stimuli\EXEMPLAR\USED\Ehotairballoon2.jpg",""
"","1275","image-slider-response","372","2.0.0","584844","prsues5texd","cheetah","2","stimuli\EXEMPLAR\USED\Ehotairballoon2.jpg","","","","","","","","","","","3"
"","872","html-button-response","373","2.0.0","585718","prsues5texd","cheetah","0","Which of these items did you see before?","","","","","Test","","true","[""stimuli\\EXEMPLAR\\USED\\Eturtle2.jpg"",""stimuli\\EXEMPLAR\\USED\\Eturtle1.jpg""]","stimuli\EXEMPLAR\USED\Eturtle2.jpg","stimuli\EXEMPLAR\USED\Eturtle2.jpg",""
"","1664","image-slider-response","374","2.0.0","587384","prsues5texd","cheetah","5","stimuli\EXEMPLAR\USED\Eturtle2.jpg","","","","","","","","","","","3"
"","1011","html-button-response","375","2.0.0","588397","prsues5texd","cheetah","0","Which of these items did you see before?","","","","","Test","","true","[""stimuli\\STATE\\USED\\Stypewriter1.jpg"",""stimuli\\STATE\\USED\\Stypewriter2.jpg""]","stimuli\STATE\USED\Stypewriter1.jpg","stimuli\STATE\USED\Stypewriter1.jpg",""
"","1453","image-slider-response","376","2.0.0","589852","prsues5texd","cheetah","5","stimuli\STATE\USED\Stypewriter1.jpg","","","","","","","","","","","3"
"","897","html-button-response","377","2.0.0","590751","prsues5texd","cheetah","0","Which of these items did you see before?","","","","","Test","","true","[""stimuli\\STATE\\USED\\Sdishwasher2.jpg"",""stimuli\\STATE\\USED\\Sdishwasher1.jpg""]","stimuli\STATE\USED\Sdishwasher2.jpg","stimuli\STATE\USED\Sdishwasher2.jpg",""
"","2142","image-slider-response","378","2.0.0","592895","prsues5texd","cheetah","5","stimuli\STATE\USED\Sdishwasher2.jpg","","","","","","","","","","","3"
"","2020","html-button-response","379","2.0.0","594917","prsues5texd","cheetah","1","Which of these items did you see before?","","","","","Test","","true","[""stimuli\\EXEMPLAR\\USED\\Eelectricbass1.jpg"",""stimuli\\EXEMPLAR\\USED\\Eelectricbass2.jpg""]","stimuli\EXEMPLAR\USED\Eelectricbass2.jpg","stimuli\EXEMPLAR\USED\Eelectricbass2.jpg",""
"","1799","image-slider-response","380","2.0.0","596719","prsues5texd","cheetah","2","stimuli\EXEMPLAR\USED\Eelectricbass2.jpg","","","","","","","","","","","3"
"","1948","html-button-response","381","2.0.0","598669","prsues5texd","cheetah","0","Which of these items did you see before?","","","","","Test","","true","[""stimuli\\STATE\\USED\\Scoffeemaker2.JPG"",""stimuli\\STATE\\USED\\Scoffeemaker1.JPG""]","stimuli\STATE\USED\Scoffeemaker2.JPG","stimuli\STATE\USED\Scoffeemaker2.JPG",""
"","1445","image-slider-response","382","2.0.0","600116","prsues5texd","cheetah","4","stimuli\STATE\USED\Scoffeemaker2.JPG","","","","","","","","","","","3"
"","1062","html-button-response","383","2.0.0","601180","prsues5texd","cheetah","1","Which of these items did you see before?","","","","","Test","","true","[""stimuli\\STATE\\USED\\Sseats1.jpg"",""stimuli\\STATE\\USED\\Sseats2.jpg""]","stimuli\STATE\USED\Sseats2.jpg","stimuli\STATE\USED\Sseats2.jpg",""
"","2110","image-slider-response","384","2.0.0","603292","prsues5texd","cheetah","4","stimuli\STATE\USED\Sseats2.jpg","","","","","","","","","","","3"
"","1295","html-button-response","385","2.0.0","604589","prsues5texd","cheetah","1","Which of these items did you see before?","","","","","Test","","true","[""stimuli\\EXEMPLAR\\USED\\Eteapot1.JPG"",""stimuli\\EXEMPLAR\\USED\\Eteapot2.JPG""]","stimuli\EXEMPLAR\USED\Eteapot2.JPG","stimuli\EXEMPLAR\USED\Eteapot2.JPG",""
"","2168","image-slider-response","386","2.0.0","606759","prsues5texd","cheetah","5","stimuli\EXEMPLAR\USED\Eteapot2.JPG","","","","","","","","","","","3"
"","917","html-button-response","387","2.0.0","607677","prsues5texd","cheetah","0","Which of these items did you see before?","","","","","Test","","true","[""stimuli\\STATE\\USED\\Sflask1.jpg"",""stimuli\\STATE\\USED\\Sflask2.jpg""]","stimuli\STATE\USED\Sflask1.jpg","stimuli\STATE\USED\Sflask1.jpg",""
"","1329","image-slider-response","388","2.0.0","609009","prsues5texd","cheetah","5","stimuli\STATE\USED\Sflask1.jpg","","","","","","","","","","","3"
"","3186","html-button-response","389","2.0.0","612196","prsues5texd","cheetah","1","Which of these items did you see before?","","","","","Test","","true","[""stimuli\\EXEMPLAR\\USED\\Echopsticks1.jpg"",""stimuli\\EXEMPLAR\\USED\\Echopsticks2.jpg""]","stimuli\EXEMPLAR\USED\Echopsticks2.jpg","stimuli\EXEMPLAR\USED\Echopsticks2.jpg",""
"","1593","image-slider-response","390","2.0.0","613791","prsues5texd","cheetah","4","stimuli\EXEMPLAR\USED\Echopsticks2.jpg","","","","","","","","","","","3"
"","1331","html-button-response","391","2.0.0","615124","prsues5texd","cheetah","1","Which of these items did you see before?","","","","","Test","","true","[""stimuli\\STATE\\USED\\Sscales2.jpg"",""stimuli\\STATE\\USED\\Sscales1.jpg""]","stimuli\STATE\USED\Sscales1.jpg","stimuli\STATE\USED\Sscales1.jpg",""
"","2183","image-slider-response","392","2.0.0","617310","prsues5texd","cheetah","4","stimuli\STATE\USED\Sscales1.jpg","","","","","","","","","","","3"
"","1998","html-button-response","393","2.0.0","619310","prsues5texd","cheetah","0","Which of these items did you see before?","","","","","Test","","false","[""stimuli\\STATE\\USED\\Sapplesgreenbasket1.jpg"",""stimuli\\STATE\\USED\\Sapplesgreenbasket2.jpg""]","stimuli\STATE\USED\Sapplesgreenbasket2.jpg","stimuli\STATE\USED\Sapplesgreenbasket1.jpg",""
"","1239","image-slider-response","394","2.0.0","620551","prsues5texd","cheetah","2","stimuli\STATE\USED\Sapplesgreenbasket1.jpg","","","","","","","","","","","3"
"","1680","html-button-response","395","2.0.0","622233","prsues5texd","cheetah","0","Which of these items did you see before?","","","","","Test","","false","[""stimuli\\STATE\\USED\\Speppers1.jpg"",""stimuli\\STATE\\USED\\Speppers2.jpg""]","stimuli\STATE\USED\Speppers2.jpg","stimuli\STATE\USED\Speppers1.jpg",""
"","1419","image-slider-response","396","2.0.0","623655","prsues5texd","cheetah","1","stimuli\STATE\USED\Speppers1.jpg","","","","","","","","","","","3"
"","797","html-button-response","397","2.0.0","624453","prsues5texd","cheetah","0","Which of these items did you see before?","","","","","Test","","true","[""stimuli\\EXEMPLAR\\USED\\Erazor2.jpg"",""stimuli\\EXEMPLAR\\USED\\Erazor1.jpg""]","stimuli\EXEMPLAR\USED\Erazor2.jpg","stimuli\EXEMPLAR\USED\Erazor2.jpg",""
"","2212","image-slider-response","398","2.0.0","626667","prsues5texd","cheetah","5","stimuli\EXEMPLAR\USED\Erazor2.jpg","","","","","","","","","","","3"
"","2180","html-button-response","399","2.0.0","628848","prsues5texd","cheetah","0","Which of these items did you see before?","","","","","Test","","true","[""stimuli\\STATE\\USED\\Sphoneold1.jpg"",""stimuli\\STATE\\USED\\Sphoneold2.jpg""]","stimuli\STATE\USED\Sphoneold1.jpg","stimuli\STATE\USED\Sphoneold1.jpg",""
"","1760","image-slider-response","400","2.0.0","630611","prsues5texd","cheetah","1","stimuli\STATE\USED\Sphoneold1.jpg","","","","","","","","","","","3"
"","1062","html-button-response","401","2.0.0","631675","prsues5texd","cheetah","1","Which of these items did you see before?","","","","","Test","","true","[""stimuli\\STATE\\USED\\Shandshake1.JPG"",""stimuli\\STATE\\USED\\Shandshake2.JPG""]","stimuli\STATE\USED\Shandshake2.JPG","stimuli\STATE\USED\Shandshake2.JPG",""
"","2982","image-slider-response","402","2.0.0","634658","prsues5texd","cheetah","4","stimuli\STATE\USED\Shandshake2.JPG","","","","","","","","","","","3"
"","1185","html-button-response","403","2.0.0","635845","prsues5texd","cheetah","1","Which of these items did you see before?","","","","","Test","","true","[""stimuli\\STATE\\USED\\Spestle2.jpg"",""stimuli\\STATE\\USED\\Spestle1.jpg""]","stimuli\STATE\USED\Spestle1.jpg","stimuli\STATE\USED\Spestle1.jpg",""
"","1442","image-slider-response","404","2.0.0","637289","prsues5texd","cheetah","4","stimuli\STATE\USED\Spestle1.jpg","","","","","","","","","","","3"
"","1526","html-button-response","405","2.0.0","638816","prsues5texd","cheetah","1","Which of these items did you see before?","","","","","Test","","true","[""stimuli\\STATE\\USED\\Sgiftbox2.jpg"",""stimuli\\STATE\\USED\\Sgiftbox1.jpg""]","stimuli\STATE\USED\Sgiftbox1.jpg","stimuli\STATE\USED\Sgiftbox1.jpg",""
"","3640","image-slider-response","406","2.0.0","642458","prsues5texd","cheetah","2","stimuli\STATE\USED\Sgiftbox1.jpg","","","","","","","","","","","3"
"","2028","html-button-response","407","2.0.0","644488","prsues5texd","cheetah","0","Which of these items did you see before?","","","","","Test","","true","[""stimuli\\STATE\\USED\\Siron2.jpg"",""stimuli\\STATE\\USED\\Siron1.jpg""]","stimuli\STATE\USED\Siron2.jpg","stimuli\STATE\USED\Siron2.jpg",""
"","1461","image-slider-response","408","2.0.0","645952","prsues5texd","cheetah","5","stimuli\STATE\USED\Siron2.jpg","","","","","","","","","","","3"
"","1662","html-button-response","409","2.0.0","647616","prsues5texd","cheetah","0","Which of these items did you see before?","","","","","Test","","true","[""stimuli\\STATE\\USED\\Sbrie1.JPG"",""stimuli\\STATE\\USED\\Sbrie2.JPG""]","stimuli\STATE\USED\Sbrie1.JPG","stimuli\STATE\USED\Sbrie1.JPG",""
"","1831","image-slider-response","410","2.0.0","649450","prsues5texd","cheetah","4","stimuli\STATE\USED\Sbrie1.JPG","","","","","","","","","","","3"
"","1290","html-button-response","411","2.0.0","650742","prsues5texd","cheetah","0","Which of these items did you see before?","","","","","Test","","true","[""stimuli\\STATE\\USED\\Sscanner1.JPG"",""stimuli\\STATE\\USED\\Sscanner2.JPG""]","stimuli\STATE\USED\Sscanner1.JPG","stimuli\STATE\USED\Sscanner1.JPG",""
"","1255","image-slider-response","412","2.0.0","652000","prsues5texd","cheetah","1","stimuli\STATE\USED\Sscanner1.JPG","","","","","","","","","","","3"
"","889","html-button-response","413","2.0.0","652891","prsues5texd","cheetah","0","Which of these items did you see before?","","","","","Test","","true","[""stimuli\\EXEMPLAR\\USED\\Edinosaur2.jpg"",""stimuli\\EXEMPLAR\\USED\\Edinosaur1.jpg""]","stimuli\EXEMPLAR\USED\Edinosaur2.jpg","stimuli\EXEMPLAR\USED\Edinosaur2.jpg",""
"","1866","image-slider-response","414","2.0.0","654759","prsues5texd","cheetah","4","stimuli\EXEMPLAR\USED\Edinosaur2.jpg","","","","","","","","","","","3"
"","2622","html-button-response","415","2.0.0","657381","prsues5texd","cheetah","1","Which of these items did you see before?","","","","","Test","","true","[""stimuli\\STATE\\USED\\Snapkins2.jpg"",""stimuli\\STATE\\USED\\Snapkins1.jpg""]","stimuli\STATE\USED\Snapkins1.jpg","stimuli\STATE\USED\Snapkins1.jpg",""
"","1295","image-slider-response","416","2.0.0","658679","prsues5texd","cheetah","5","stimuli\STATE\USED\Snapkins1.jpg","","","","","","","","","","","3"
"","897","html-button-response","417","2.0.0","659578","prsues5texd","cheetah","1","Which of these items did you see before?","","","","","Test","","true","[""stimuli\\EXEMPLAR\\USED\\Eholepunch2.jpg"",""stimuli\\EXEMPLAR\\USED\\Eholepunch1.jpg""]","stimuli\EXEMPLAR\USED\Eholepunch1.jpg","stimuli\EXEMPLAR\USED\Eholepunch1.jpg",""
"","1240","image-slider-response","418","2.0.0","660820","prsues5texd","cheetah","5","stimuli\EXEMPLAR\USED\Eholepunch1.jpg","","","","","","","","","","","3"
"","824","html-button-response","419","2.0.0","661647","prsues5texd","cheetah","1","Which of these items did you see before?","","","","","Test","","true","[""stimuli\\EXEMPLAR\\USED\\Espraybottle2.jpg"",""stimuli\\EXEMPLAR\\USED\\Espraybottle1.jpg""]","stimuli\EXEMPLAR\USED\Espraybottle1.jpg","stimuli\EXEMPLAR\USED\Espraybottle1.jpg",""
"","1040","image-slider-response","420","2.0.0","662688","prsues5texd","cheetah","5","stimuli\EXEMPLAR\USED\Espraybottle1.jpg","","","","","","","","","","","3"
"","1135","html-button-response","421","2.0.0","663825","prsues5texd","cheetah","1","Which of these items did you see before?","","","","","Test","","true","[""stimuli\\STATE\\USED\\Sbabytoy2.JPG"",""stimuli\\STATE\\USED\\Sbabytoy1.JPG""]","stimuli\STATE\USED\Sbabytoy1.JPG","stimuli\STATE\USED\Sbabytoy1.JPG",""
"","1684","image-slider-response","422","2.0.0","665511","prsues5texd","cheetah","2","stimuli\STATE\USED\Sbabytoy1.JPG","","","","","","","","","","","3"
"","1629","html-button-response","423","2.0.0","667142","prsues5texd","cheetah","1","Which of these items did you see before?","","","","","Test","","true","[""stimuli\\EXEMPLAR\\USED\\Etongs2.jpg"",""stimuli\\EXEMPLAR\\USED\\Etongs1.jpg""]","stimuli\EXEMPLAR\USED\Etongs1.jpg","stimuli\EXEMPLAR\USED\Etongs1.jpg",""
"","1674","image-slider-response","424","2.0.0","668818","prsues5texd","cheetah","2","stimuli\EXEMPLAR\USED\Etongs1.jpg","","","","","","","","","","","3"
"","1173","html-button-response","425","2.0.0","669992","prsues5texd","cheetah","0","Which of these items did you see before?","","","","","Test","","false","[""stimuli\\STATE\\USED\\Sdryer1.jpg"",""stimuli\\STATE\\USED\\Sdryer2.jpg""]","stimuli\STATE\USED\Sdryer2.jpg","stimuli\STATE\USED\Sdryer1.jpg",""
"","1237","image-slider-response","426","2.0.0","671231","prsues5texd","cheetah","4","stimuli\STATE\USED\Sdryer1.jpg","","","","","","","","","","","3"
"","1895","html-button-response","427","2.0.0","673128","prsues5texd","cheetah","0","Which of these items did you see before?","","","","","Test","","true","[""stimuli\\EXEMPLAR\\USED\\Ehanger2.jpg"",""stimuli\\EXEMPLAR\\USED\\Ehanger1.jpg""]","stimuli\EXEMPLAR\USED\Ehanger2.jpg","stimuli\EXEMPLAR\USED\Ehanger2.jpg",""
"","1016","image-slider-response","428","2.0.0","674146","prsues5texd","cheetah","1","stimuli\EXEMPLAR\USED\Ehanger2.jpg","","","","","","","","","","","3"
"","4828","html-button-response","429","2.0.0","678976","prsues5texd","cheetah","0","Which of these items did you see before?","","","","","Test","","true","[""stimuli\\STATE\\USED\\Sdishes1.JPG"",""stimuli\\STATE\\USED\\Sdishes2.JPG""]","stimuli\STATE\USED\Sdishes1.JPG","stimuli\STATE\USED\Sdishes1.JPG",""
"","1604","image-slider-response","430","2.0.0","680582","prsues5texd","cheetah","2","stimuli\STATE\USED\Sdishes1.JPG","","","","","","","","","","","3"
"","1577","html-button-response","431","2.0.0","682161","prsues5texd","cheetah","1","Which of these items did you see before?","","","","","Test","","true","[""stimuli\\STATE\\USED\\Sdrum2.jpg"",""stimuli\\STATE\\USED\\Sdrum1.jpg""]","stimuli\STATE\USED\Sdrum1.jpg","stimuli\STATE\USED\Sdrum1.jpg",""
"","1027","image-slider-response","432","2.0.0","683190","prsues5texd","cheetah","4","stimuli\STATE\USED\Sdrum1.jpg","","","","","","","","","","","3"
"","1018","html-button-response","433","2.0.0","684209","prsues5texd","cheetah","0","Which of these items did you see before?","","","","","Test","","true","[""stimuli\\STATE\\USED\\Scooker2.jpg"",""stimuli\\STATE\\USED\\Scooker1.jpg""]","stimuli\STATE\USED\Scooker2.jpg","stimuli\STATE\USED\Scooker2.jpg",""
"","1512","image-slider-response","434","2.0.0","685723","prsues5texd","cheetah","4","stimuli\STATE\USED\Scooker2.jpg","","","","","","","","","","","3"
"","1560","html-button-response","435","2.0.0","687285","prsues5texd","cheetah","0","Which of these items did you see before?","","","","","Test","","true","[""stimuli\\EXEMPLAR\\USED\\Enozzle1.jpg"",""stimuli\\EXEMPLAR\\USED\\Enozzle2.jpg""]","stimuli\EXEMPLAR\USED\Enozzle1.jpg","stimuli\EXEMPLAR\USED\Enozzle1.jpg",""
"","1012","image-slider-response","436","2.0.0","688299","prsues5texd","cheetah","1","stimuli\EXEMPLAR\USED\Enozzle1.jpg","","","","","","","","","","","3"
"","1115","html-button-response","437","2.0.0","689416","prsues5texd","cheetah","0","Which of these items did you see before?","","","","","Test","","true","[""stimuli\\STATE\\USED\\Sschoolbag1.JPG"",""stimuli\\STATE\\USED\\Sschoolbag2.JPG""]","stimuli\STATE\USED\Sschoolbag1.JPG","stimuli\STATE\USED\Sschoolbag1.JPG",""
"","1794","image-slider-response","438","2.0.0","691213","prsues5texd","cheetah","1","stimuli\STATE\USED\Sschoolbag1.JPG","","","","","","","","","","","3"
"","1271","html-button-response","439","2.0.0","692486","prsues5texd","cheetah","0","Which of these items did you see before?","","","","","Test","","true","[""stimuli\\EXEMPLAR\\USED\\Epliers1.jpg"",""stimuli\\EXEMPLAR\\USED\\Epliers2.jpg""]","stimuli\EXEMPLAR\USED\Epliers1.jpg","stimuli\EXEMPLAR\USED\Epliers1.jpg",""
"","1360","image-slider-response","440","2.0.0","693848","prsues5texd","cheetah","2","stimuli\EXEMPLAR\USED\Epliers1.jpg","","","","","","","","","","","3"
"","918","html-button-response","441","2.0.0","694767","prsues5texd","cheetah","0","Which of these items did you see before?","","","","","Test","","true","[""stimuli\\STATE\\USED\\Sbelt2.jpg"",""stimuli\\STATE\\USED\\Sbelt1.jpg""]","stimuli\STATE\USED\Sbelt2.jpg","stimuli\STATE\USED\Sbelt2.jpg",""
"","2386","image-slider-response","442","2.0.0","697155","prsues5texd","cheetah","1","stimuli\STATE\USED\Sbelt2.jpg","","","","","","","","","","","3"
"","1105","html-button-response","443","2.0.0","698262","prsues5texd","cheetah","0","Which of these items did you see before?","","","","","Test","","false","[""stimuli\\EXEMPLAR\\USED\\Elei1.jpg"",""stimuli\\EXEMPLAR\\USED\\Elei2.jpg""]","stimuli\EXEMPLAR\USED\Elei2.jpg","stimuli\EXEMPLAR\USED\Elei1.jpg",""
"","2938","image-slider-response","444","2.0.0","701201","prsues5texd","cheetah","1","stimuli\EXEMPLAR\USED\Elei1.jpg","","","","","","","","","","","3"
"","1050","html-button-response","445","2.0.0","702254","prsues5texd","cheetah","0","Which of these items did you see before?","","","","","Test","","true","[""stimuli\\STATE\\USED\\Spotpan2.JPG"",""stimuli\\STATE\\USED\\Spotpan1.JPG""]","stimuli\STATE\USED\Spotpan2.JPG","stimuli\STATE\USED\Spotpan2.JPG",""
"","1458","image-slider-response","446","2.0.0","703713","prsues5texd","cheetah","5","stimuli\STATE\USED\Spotpan2.JPG","","","","","","","","","","","3"
"","914","html-button-response","447","2.0.0","704629","prsues5texd","cheetah","0","Which of these items did you see before?","","","","","Test","","true","[""stimuli\\EXEMPLAR\\USED\\Efolder2.jpg"",""stimuli\\EXEMPLAR\\USED\\Efolder1.jpg""]","stimuli\EXEMPLAR\USED\Efolder2.jpg","stimuli\EXEMPLAR\USED\Efolder2.jpg",""
"","1890","image-slider-response","448","2.0.0","706521","prsues5texd","cheetah","5","stimuli\EXEMPLAR\USED\Efolder2.jpg","","","","","","","","","","","3"
"","31141","survey-text","449","2.0.0","737671","prsues5texd","cheetah","{""experiment_purpose"":""how much I am able to remember?"",""Q1"":""colors, orientation, specific features. "",""technical_issues"":""None""}","","","","","","","","","","","",""
