"success","rt","trial_type","trial_index","plugin_version","time_elapsed","random_id","participant","response","stimulus","timeout","failed_images","failed_audio","failed_video","trial_phase","repeated","correct","choice_images","correct_image","choice","slider_start"
"true","1837","fullscreen","0","2.0.0","2844","puwua1qwtby","kangaroo","","","","","","","","","","","","",""
"","2815","survey-text","1","2.0.0","5666","puwua1qwtby","kangaroo","{""participant_id"":""kangaroo""}","","","","","","","","","","","",""
"","1706","html-keyboard-response","2","2.0.0","7373","puwua1qwtby","kangaroo","Enter","<p>Welcome to the Massive Memory Experiment. Press any key to move on. </p>","","","","","","","","","","",""
"","21050","html-keyboard-response","3","2.0.0","28425","puwua1qwtby","kangaroo"," ","
      <div style='width:900px;margin: auto;'><p>In the first section you will see a stream of images, with fixation crosses in between each image.</p>
      <p>Each image will remain on screen for 2 seconds. Your job is to detect images that you have seen before within the experiment. Whenever you see an image that you have seen previously <b>at any point in the stream of images</b>, press the spacebar.</p>
      <p>We will let you know if you have correctly or falsely clicked the spacebar on an image by changing the color of the fixation cross.</p>
      <p>If you press the spacebar correctly (the image really did appear earlier), the fixation cross will turn green. If you pressed the spacebar incorrectly, the fixation cross will turn red.</p>
      <p>Please watch carefully to detect the images that show up again!</p>
      <p>Press any key to start.</p></div>
    ","","","","","","","","","","",""
"true","","preload","4","2.0.0","29297","puwua1qwtby","kangaroo","","","false","[]","[]","[]","","","","","","",""
"","null","image-keyboard-response","5","2.0.0","31301","puwua1qwtby","kangaroo","null","stimuli\STATE\USED\Speppers2.jpg","","","","","Memory","false","null","","","",""
"","null","html-keyboard-response","6","2.0.0","31803","puwua1qwtby","kangaroo","null","<div style=""font-size:60px; color: black;"">+</div>","","","","","","","","","","",""
"","null","image-keyboard-response","7","2.0.0","33806","puwua1qwtby","kangaroo","null","stimuli\STATE\USED\Sbooks2.JPG","","","","","Memory","false","null","","","",""
"","null","html-keyboard-response","8","2.0.0","34310","puwua1qwtby","kangaroo","null","<div style=""font-size:60px; color: black;"">+</div>","","","","","","","","","","",""
"","null","image-keyboard-response","9","2.0.0","36314","puwua1qwtby","kangaroo","null","stimuli\EXEMPLAR\USED\Ewineglass2.jpg","","","","","Memory","false","null","","","",""
"","null","html-keyboard-response","10","2.0.0","36817","puwua1qwtby","kangaroo","null","<div style=""font-size:60px; color: black;"">+</div>","","","","","","","","","","",""
"","null","image-keyboard-response","11","2.0.0","38821","puwua1qwtby","kangaroo","null","stimuli\STATE\USED\Schinesefoodbox1.jpg","","","","","Memory","false","null","","","",""
"","null","html-keyboard-response","12","2.0.0","39324","puwua1qwtby","kangaroo","null","<div style=""font-size:60px; color: black;"">+</div>","","","","","","","","","","",""
"","null","image-keyboard-response","13","2.0.0","41328","puwua1qwtby","kangaroo","null","stimuli\EXEMPLAR\USED\Eholepunch1.jpg","","","","","Memory","false","null","","","",""
"","null","html-keyboard-response","14","2.0.0","41831","puwua1qwtby","kangaroo","null","<div style=""font-size:60px; color: black;"">+</div>","","","","","","","","","","",""
"","null","image-keyboard-response","15","2.0.0","43835","puwua1qwtby","kangaroo","null","stimuli\EXEMPLAR\USED\Eswimsuit1.jpg","","","","","Memory","false","null","","","",""
"","null","html-keyboard-response","16","2.0.0","44337","puwua1qwtby","kangaroo","null","<div style=""font-size:60px; color: black;"">+</div>","","","","","","","","","","",""
"","null","image-keyboard-response","17","2.0.0","46341","puwua1qwtby","kangaroo","null","stimuli\STATE\USED\Sgrinder2.jpg","","","","","Memory","false","null","","","",""
"","null","html-keyboard-response","18","2.0.0","46844","puwua1qwtby","kangaroo","null","<div style=""font-size:60px; color: black;"">+</div>","","","","","","","","","","",""
"","null","image-keyboard-response","19","2.0.0","48848","puwua1qwtby","kangaroo","null","stimuli\EXEMPLAR\USED\Enozzle2.jpg","","","","","Memory","false","null","","","",""
"","null","html-keyboard-response","20","2.0.0","49351","puwua1qwtby","kangaroo","null","<div style=""font-size:60px; color: black;"">+</div>","","","","","","","","","","",""
"","null","image-keyboard-response","21","2.0.0","51355","puwua1qwtby","kangaroo","null","stimuli\EXEMPLAR\USED\Elog1.jpg","","","","","Memory","false","null","","","",""
"","null","html-keyboard-response","22","2.0.0","51857","puwua1qwtby","kangaroo","null","<div style=""font-size:60px; color: black;"">+</div>","","","","","","","","","","",""
"","null","image-keyboard-response","23","2.0.0","53861","puwua1qwtby","kangaroo","null","stimuli\EXEMPLAR\USED\Etoyhand1.jpg","","","","","Memory","false","null","","","",""
"","null","html-keyboard-response","24","2.0.0","54364","puwua1qwtby","kangaroo","null","<div style=""font-size:60px; color: black;"">+</div>","","","","","","","","","","",""
"","null","image-keyboard-response","25","2.0.0","56366","puwua1qwtby","kangaroo","null","stimuli\STATE\USED\Spie1.JPG","","","","","Memory","false","null","","","",""
"","null","html-keyboard-response","26","2.0.0","56869","puwua1qwtby","kangaroo","null","<div style=""font-size:60px; color: black;"">+</div>","","","","","","","","","","",""
"","null","image-keyboard-response","27","2.0.0","58872","puwua1qwtby","kangaroo","null","stimuli\STATE\USED\Sumbrella1.jpg","","","","","Memory","false","null","","","",""
"","null","html-keyboard-response","28","2.0.0","59375","puwua1qwtby","kangaroo","null","<div style=""font-size:60px; color: black;"">+</div>","","","","","","","","","","",""
"","null","image-keyboard-response","29","2.0.0","61378","puwua1qwtby","kangaroo","null","stimuli\STATE\USED\Shandmirror1.jpg","","","","","Memory","false","null","","","",""
"","null","html-keyboard-response","30","2.0.0","61881","puwua1qwtby","kangaroo","null","<div style=""font-size:60px; color: black;"">+</div>","","","","","","","","","","",""
"","1452","image-keyboard-response","31","2.0.0","63885","puwua1qwtby","kangaroo"," ","stimuli\EXEMPLAR\USED\Etoyhand1.jpg","","","","","Memory","true","true","","","",""
"","null","html-keyboard-response","32","2.0.0","64387","puwua1qwtby","kangaroo","null","<div style=""font-size:60px; color: green;"">+</div>","","","","","","","","","","",""
"","null","image-keyboard-response","33","2.0.0","66391","puwua1qwtby","kangaroo","null","stimuli\EXEMPLAR\USED\Efolder1.jpg","","","","","Memory","false","null","","","",""
"","null","html-keyboard-response","34","2.0.0","66894","puwua1qwtby","kangaroo","null","<div style=""font-size:60px; color: black;"">+</div>","","","","","","","","","","",""
"","null","image-keyboard-response","35","2.0.0","68898","puwua1qwtby","kangaroo","null","stimuli\STATE\USED\Scooker2.jpg","","","","","Memory","false","null","","","",""
"","null","html-keyboard-response","36","2.0.0","69400","puwua1qwtby","kangaroo","null","<div style=""font-size:60px; color: black;"">+</div>","","","","","","","","","","",""
"","null","image-keyboard-response","37","2.0.0","71403","puwua1qwtby","kangaroo","null","stimuli\EXEMPLAR\USED\Ecake1.jpg","","","","","Memory","false","null","","","",""
"","null","html-keyboard-response","38","2.0.0","71906","puwua1qwtby","kangaroo","null","<div style=""font-size:60px; color: black;"">+</div>","","","","","","","","","","",""
"","null","image-keyboard-response","39","2.0.0","73910","puwua1qwtby","kangaroo","null","stimuli\EXEMPLAR\USED\Estapler1.jpg","","","","","Memory","false","null","","","",""
"","null","html-keyboard-response","40","2.0.0","74412","puwua1qwtby","kangaroo","null","<div style=""font-size:60px; color: black;"">+</div>","","","","","","","","","","",""
"","null","image-keyboard-response","41","2.0.0","76416","puwua1qwtby","kangaroo","null","stimuli\STATE\USED\Shandsign1.JPG","","","","","Memory","false","null","","","",""
"","null","html-keyboard-response","42","2.0.0","76919","puwua1qwtby","kangaroo","null","<div style=""font-size:60px; color: black;"">+</div>","","","","","","","","","","",""
"","null","image-keyboard-response","43","2.0.0","78923","puwua1qwtby","kangaroo","null","stimuli\EXEMPLAR\USED\Eicecream2.jpg","","","","","Memory","false","null","","","",""
"","null","html-keyboard-response","44","2.0.0","79425","puwua1qwtby","kangaroo","null","<div style=""font-size:60px; color: black;"">+</div>","","","","","","","","","","",""
"","null","image-keyboard-response","45","2.0.0","81429","puwua1qwtby","kangaroo","null","stimuli\STATE\USED\Sscanner2.JPG","","","","","Memory","false","null","","","",""
"","null","html-keyboard-response","46","2.0.0","81932","puwua1qwtby","kangaroo","null","<div style=""font-size:60px; color: black;"">+</div>","","","","","","","","","","",""
"","null","image-keyboard-response","47","2.0.0","83935","puwua1qwtby","kangaroo","null","stimuli\STATE\USED\Slaptop1.JPG","","","","","Memory","false","null","","","",""
"","null","html-keyboard-response","48","2.0.0","84438","puwua1qwtby","kangaroo","null","<div style=""font-size:60px; color: black;"">+</div>","","","","","","","","","","",""
"","null","image-keyboard-response","49","2.0.0","86441","puwua1qwtby","kangaroo","null","stimuli\STATE\USED\Sphoneold1.jpg","","","","","Memory","false","null","","","",""
"","null","html-keyboard-response","50","2.0.0","86943","puwua1qwtby","kangaroo","null","<div style=""font-size:60px; color: black;"">+</div>","","","","","","","","","","",""
"","null","image-keyboard-response","51","2.0.0","88947","puwua1qwtby","kangaroo","null","stimuli\STATE\USED\Sapple1.jpg","","","","","Memory","false","null","","","",""
"","null","html-keyboard-response","52","2.0.0","89450","puwua1qwtby","kangaroo","null","<div style=""font-size:60px; color: black;"">+</div>","","","","","","","","","","",""
"","982","image-keyboard-response","53","2.0.0","91453","puwua1qwtby","kangaroo"," ","stimuli\STATE\USED\Sbook2.JPG","","","","","Memory","false","false","","","",""
"","null","html-keyboard-response","54","2.0.0","91956","puwua1qwtby","kangaroo","null","<div style=""font-size:60px; color: red;"">+</div>","","","","","","","","","","",""
"","null","image-keyboard-response","55","2.0.0","93960","puwua1qwtby","kangaroo","null","stimuli\STATE\USED\Sdishwasher2.jpg","","","","","Memory","false","null","","","",""
"","null","html-keyboard-response","56","2.0.0","94463","puwua1qwtby","kangaroo","null","<div style=""font-size:60px; color: black;"">+</div>","","","","","","","","","","",""
"","null","image-keyboard-response","57","2.0.0","96466","puwua1qwtby","kangaroo","null","stimuli\STATE\USED\Sdryer1.jpg","","","","","Memory","false","null","","","",""
"","null","html-keyboard-response","58","2.0.0","96969","puwua1qwtby","kangaroo","null","<div style=""font-size:60px; color: black;"">+</div>","","","","","","","","","","",""
"","null","image-keyboard-response","59","2.0.0","98973","puwua1qwtby","kangaroo","null","stimuli\EXEMPLAR\USED\Echocolatebar1.jpg","","","","","Memory","false","null","","","",""
"","null","html-keyboard-response","60","2.0.0","99475","puwua1qwtby","kangaroo","null","<div style=""font-size:60px; color: black;"">+</div>","","","","","","","","","","",""
"","null","image-keyboard-response","61","2.0.0","101479","puwua1qwtby","kangaroo","null","stimuli\STATE\USED\Stiger1.jpg","","","","","Memory","false","null","","","",""
"","null","html-keyboard-response","62","2.0.0","101981","puwua1qwtby","kangaroo","null","<div style=""font-size:60px; color: black;"">+</div>","","","","","","","","","","",""
"","null","image-keyboard-response","63","2.0.0","103985","puwua1qwtby","kangaroo","null","stimuli\STATE\USED\Sdonut2.jpg","","","","","Memory","false","null","","","",""
"","null","html-keyboard-response","64","2.0.0","104487","puwua1qwtby","kangaroo","null","<div style=""font-size:60px; color: black;"">+</div>","","","","","","","","","","",""
"","null","image-keyboard-response","65","2.0.0","106491","puwua1qwtby","kangaroo","null","stimuli\STATE\USED\Slockbox2.jpg","","","","","Memory","false","null","","","",""
"","null","html-keyboard-response","66","2.0.0","106993","puwua1qwtby","kangaroo","null","<div style=""font-size:60px; color: black;"">+</div>","","","","","","","","","","",""
"","828","image-keyboard-response","67","2.0.0","108997","puwua1qwtby","kangaroo"," ","stimuli\EXEMPLAR\USED\Echocolatebar1.jpg","","","","","Memory","true","true","","","",""
"","null","html-keyboard-response","68","2.0.0","109500","puwua1qwtby","kangaroo","null","<div style=""font-size:60px; color: green;"">+</div>","","","","","","","","","","",""
"","null","image-keyboard-response","69","2.0.0","111505","puwua1qwtby","kangaroo","null","stimuli\EXEMPLAR\USED\Etoykeys1.jpg","","","","","Memory","false","null","","","",""
"","null","html-keyboard-response","70","2.0.0","112007","puwua1qwtby","kangaroo","null","<div style=""font-size:60px; color: black;"">+</div>","","","","","","","","","","",""
"","null","image-keyboard-response","71","2.0.0","114011","puwua1qwtby","kangaroo","null","stimuli\STATE\USED\Sapplesredbasket2.JPG","","","","","Memory","false","null","","","",""
"","null","html-keyboard-response","72","2.0.0","114514","puwua1qwtby","kangaroo","null","<div style=""font-size:60px; color: black;"">+</div>","","","","","","","","","","",""
"","null","image-keyboard-response","73","2.0.0","116517","puwua1qwtby","kangaroo","null","stimuli\STATE\USED\Sredcabbage2.jpg","","","","","Memory","false","null","","","",""
"","null","html-keyboard-response","74","2.0.0","117019","puwua1qwtby","kangaroo","null","<div style=""font-size:60px; color: black;"">+</div>","","","","","","","","","","",""
"","null","image-keyboard-response","75","2.0.0","119023","puwua1qwtby","kangaroo","null","stimuli\STATE\USED\Sbarnmailbox1.jpg","","","","","Memory","false","null","","","",""
"","null","html-keyboard-response","76","2.0.0","119526","puwua1qwtby","kangaroo","null","<div style=""font-size:60px; color: black;"">+</div>","","","","","","","","","","",""
"","null","image-keyboard-response","77","2.0.0","121529","puwua1qwtby","kangaroo","null","stimuli\EXEMPLAR\USED\Eguitar1.jpg","","","","","Memory","false","null","","","",""
"","null","html-keyboard-response","78","2.0.0","122032","puwua1qwtby","kangaroo","null","<div style=""font-size:60px; color: black;"">+</div>","","","","","","","","","","",""
"","null","image-keyboard-response","79","2.0.0","124036","puwua1qwtby","kangaroo","null","stimuli\STATE\USED\Sphone2.JPG","","","","","Memory","false","null","","","",""
"","null","html-keyboard-response","80","2.0.0","124539","puwua1qwtby","kangaroo","null","<div style=""font-size:60px; color: black;"">+</div>","","","","","","","","","","",""
"","null","image-keyboard-response","81","2.0.0","126542","puwua1qwtby","kangaroo","null","stimuli\STATE\USED\Spotpan1.JPG","","","","","Memory","false","null","","","",""
"","null","html-keyboard-response","82","2.0.0","127044","puwua1qwtby","kangaroo","null","<div style=""font-size:60px; color: black;"">+</div>","","","","","","","","","","",""
"","1099","image-keyboard-response","83","2.0.0","129048","puwua1qwtby","kangaroo"," ","stimuli\STATE\USED\Sbarnmailbox1.jpg","","","","","Memory","true","true","","","",""
"","null","html-keyboard-response","84","2.0.0","129551","puwua1qwtby","kangaroo","null","<div style=""font-size:60px; color: green;"">+</div>","","","","","","","","","","",""
"","null","image-keyboard-response","85","2.0.0","131554","puwua1qwtby","kangaroo","null","stimuli\EXEMPLAR\USED\Ebread2.jpg","","","","","Memory","false","null","","","",""
"","null","html-keyboard-response","86","2.0.0","132057","puwua1qwtby","kangaroo","null","<div style=""font-size:60px; color: black;"">+</div>","","","","","","","","","","",""
"","null","image-keyboard-response","87","2.0.0","134061","puwua1qwtby","kangaroo","null","stimuli\STATE\USED\Sstoplight2.jpg","","","","","Memory","false","null","","","",""
"","null","html-keyboard-response","88","2.0.0","134564","puwua1qwtby","kangaroo","null","<div style=""font-size:60px; color: black;"">+</div>","","","","","","","","","","",""
"","null","image-keyboard-response","89","2.0.0","136567","puwua1qwtby","kangaroo","null","stimuli\STATE\USED\Scateringtray1.jpg","","","","","Memory","false","null","","","",""
"","null","html-keyboard-response","90","2.0.0","137069","puwua1qwtby","kangaroo","null","<div style=""font-size:60px; color: black;"">+</div>","","","","","","","","","","",""
"","null","image-keyboard-response","91","2.0.0","139072","puwua1qwtby","kangaroo","null","stimuli\EXEMPLAR\USED\Edispenser2.jpg","","","","","Memory","false","null","","","",""
"","null","html-keyboard-response","92","2.0.0","139575","puwua1qwtby","kangaroo","null","<div style=""font-size:60px; color: black;"">+</div>","","","","","","","","","","",""
"","null","image-keyboard-response","93","2.0.0","141579","puwua1qwtby","kangaroo","null","stimuli\EXEMPLAR\USED\Espraybottle2.jpg","","","","","Memory","false","null","","","",""
"","null","html-keyboard-response","94","2.0.0","142082","puwua1qwtby","kangaroo","null","<div style=""font-size:60px; color: black;"">+</div>","","","","","","","","","","",""
"","null","image-keyboard-response","95","2.0.0","144086","puwua1qwtby","kangaroo","null","stimuli\EXEMPLAR\USED\Emicroscope1.jpg","","","","","Memory","false","null","","","",""
"","null","html-keyboard-response","96","2.0.0","144589","puwua1qwtby","kangaroo","null","<div style=""font-size:60px; color: black;"">+</div>","","","","","","","","","","",""
"","null","image-keyboard-response","97","2.0.0","146592","puwua1qwtby","kangaroo","null","stimuli\EXEMPLAR\USED\Eframe1.jpg","","","","","Memory","false","null","","","",""
"","null","html-keyboard-response","98","2.0.0","147094","puwua1qwtby","kangaroo","null","<div style=""font-size:60px; color: black;"">+</div>","","","","","","","","","","",""
"","null","image-keyboard-response","99","2.0.0","149097","puwua1qwtby","kangaroo","null","stimuli\STATE\USED\Sbabytoy2.JPG","","","","","Memory","false","null","","","",""
"","null","html-keyboard-response","100","2.0.0","149600","puwua1qwtby","kangaroo","null","<div style=""font-size:60px; color: black;"">+</div>","","","","","","","","","","",""
"","null","image-keyboard-response","101","2.0.0","151604","puwua1qwtby","kangaroo","null","stimuli\STATE\USED\Sgiftbag2.jpg","","","","","Memory","false","null","","","",""
"","null","html-keyboard-response","102","2.0.0","152106","puwua1qwtby","kangaroo","null","<div style=""font-size:60px; color: black;"">+</div>","","","","","","","","","","",""
"","938","image-keyboard-response","103","2.0.0","154109","puwua1qwtby","kangaroo"," ","stimuli\EXEMPLAR\USED\Emicroscope1.jpg","","","","","Memory","true","true","","","",""
"","null","html-keyboard-response","104","2.0.0","154611","puwua1qwtby","kangaroo","null","<div style=""font-size:60px; color: green;"">+</div>","","","","","","","","","","",""
"","null","image-keyboard-response","105","2.0.0","156615","puwua1qwtby","kangaroo","null","stimuli\EXEMPLAR\USED\Echeeses2.jpg","","","","","Memory","false","null","","","",""
"","null","html-keyboard-response","106","2.0.0","157117","puwua1qwtby","kangaroo","null","<div style=""font-size:60px; color: black;"">+</div>","","","","","","","","","","",""
"","1284","html-button-response","107","2.0.0","158404","puwua1qwtby","kangaroo","0","Are you still there?","","","","","Attention Check","","","","","",""
"","null","image-keyboard-response","108","2.0.0","160407","puwua1qwtby","kangaroo","null","stimuli\STATE\USED\Sbreadslice2.jpg","","","","","Memory","false","null","","","",""
"","null","html-keyboard-response","109","2.0.0","160910","puwua1qwtby","kangaroo","null","<div style=""font-size:60px; color: black;"">+</div>","","","","","","","","","","",""
"","1536","image-keyboard-response","110","2.0.0","162914","puwua1qwtby","kangaroo"," ","stimuli\EXEMPLAR\USED\Emuffler1.jpg","","","","","Memory","false","false","","","",""
"","null","html-keyboard-response","111","2.0.0","163418","puwua1qwtby","kangaroo","null","<div style=""font-size:60px; color: red;"">+</div>","","","","","","","","","","",""
"","null","image-keyboard-response","112","2.0.0","165421","puwua1qwtby","kangaroo","null","stimuli\STATE\USED\Spestle2.jpg","","","","","Memory","false","null","","","",""
"","null","html-keyboard-response","113","2.0.0","165925","puwua1qwtby","kangaroo","null","<div style=""font-size:60px; color: black;"">+</div>","","","","","","","","","","",""
"","null","image-keyboard-response","114","2.0.0","167928","puwua1qwtby","kangaroo","null","stimuli\EXEMPLAR\USED\Esantahat2.jpg","","","","","Memory","false","null","","","",""
"","null","html-keyboard-response","115","2.0.0","168431","puwua1qwtby","kangaroo","null","<div style=""font-size:60px; color: black;"">+</div>","","","","","","","","","","",""
"","1391","image-keyboard-response","116","2.0.0","170434","puwua1qwtby","kangaroo"," ","stimuli\STATE\USED\Sbriefcasemetal2.JPG","","","","","Memory","false","false","","","",""
"","null","html-keyboard-response","117","2.0.0","170937","puwua1qwtby","kangaroo","null","<div style=""font-size:60px; color: red;"">+</div>","","","","","","","","","","",""
"","962","image-keyboard-response","118","2.0.0","172940","puwua1qwtby","kangaroo"," ","stimuli\EXEMPLAR\USED\Emuffler1.jpg","","","","","Memory","true","true","","","",""
"","null","html-keyboard-response","119","2.0.0","173442","puwua1qwtby","kangaroo","null","<div style=""font-size:60px; color: green;"">+</div>","","","","","","","","","","",""
"","null","image-keyboard-response","120","2.0.0","175446","puwua1qwtby","kangaroo","null","stimuli\STATE\USED\Sschoolbag2.JPG","","","","","Memory","false","null","","","",""
"","null","html-keyboard-response","121","2.0.0","175949","puwua1qwtby","kangaroo","null","<div style=""font-size:60px; color: black;"">+</div>","","","","","","","","","","",""
"","null","image-keyboard-response","122","2.0.0","177953","puwua1qwtby","kangaroo","null","stimuli\EXEMPLAR\USED\Eplate1.jpg","","","","","Memory","false","null","","","",""
"","null","html-keyboard-response","123","2.0.0","178456","puwua1qwtby","kangaroo","null","<div style=""font-size:60px; color: black;"">+</div>","","","","","","","","","","",""
"","null","image-keyboard-response","124","2.0.0","180460","puwua1qwtby","kangaroo","null","stimuli\STATE\USED\Spumpkinpie1.jpg","","","","","Memory","false","null","","","",""
"","null","html-keyboard-response","125","2.0.0","180962","puwua1qwtby","kangaroo","null","<div style=""font-size:60px; color: black;"">+</div>","","","","","","","","","","",""
"","null","image-keyboard-response","126","2.0.0","182971","puwua1qwtby","kangaroo","null","stimuli\STATE\USED\Siron1.jpg","","","","","Memory","false","null","","","",""
"","null","html-keyboard-response","127","2.0.0","183473","puwua1qwtby","kangaroo","null","<div style=""font-size:60px; color: black;"">+</div>","","","","","","","","","","",""
"","null","image-keyboard-response","128","2.0.0","185476","puwua1qwtby","kangaroo","null","stimuli\STATE\USED\Spolarbear1.jpg","","","","","Memory","false","null","","","",""
"","null","html-keyboard-response","129","2.0.0","185979","puwua1qwtby","kangaroo","null","<div style=""font-size:60px; color: black;"">+</div>","","","","","","","","","","",""
"","null","image-keyboard-response","130","2.0.0","187982","puwua1qwtby","kangaroo","null","stimuli\EXEMPLAR\USED\Eturtle1.jpg","","","","","Memory","false","null","","","",""
"","null","html-keyboard-response","131","2.0.0","188484","puwua1qwtby","kangaroo","null","<div style=""font-size:60px; color: black;"">+</div>","","","","","","","","","","",""
"","null","image-keyboard-response","132","2.0.0","190487","puwua1qwtby","kangaroo","null","stimuli\EXEMPLAR\USED\Epotatochips1.jpg","","","","","Memory","false","null","","","",""
"","null","html-keyboard-response","133","2.0.0","190990","puwua1qwtby","kangaroo","null","<div style=""font-size:60px; color: black;"">+</div>","","","","","","","","","","",""
"","1096","image-keyboard-response","134","2.0.0","192994","puwua1qwtby","kangaroo"," ","stimuli\STATE\USED\Siron1.jpg","","","","","Memory","true","true","","","",""
"","null","html-keyboard-response","135","2.0.0","193496","puwua1qwtby","kangaroo","null","<div style=""font-size:60px; color: green;"">+</div>","","","","","","","","","","",""
"","null","image-keyboard-response","136","2.0.0","195500","puwua1qwtby","kangaroo","null","stimuli\STATE\USED\Scontainer2.JPG","","","","","Memory","false","null","","","",""
"","null","html-keyboard-response","137","2.0.0","196003","puwua1qwtby","kangaroo","null","<div style=""font-size:60px; color: black;"">+</div>","","","","","","","","","","",""
"","null","image-keyboard-response","138","2.0.0","198007","puwua1qwtby","kangaroo","null","stimuli\STATE\USED\Sscales1.jpg","","","","","Memory","false","null","","","",""
"","null","html-keyboard-response","139","2.0.0","198510","puwua1qwtby","kangaroo","null","<div style=""font-size:60px; color: black;"">+</div>","","","","","","","","","","",""
"","null","image-keyboard-response","140","2.0.0","200514","puwua1qwtby","kangaroo","null","stimuli\EXEMPLAR\USED\Eladder1.jpg","","","","","Memory","false","null","","","",""
"","null","html-keyboard-response","141","2.0.0","201016","puwua1qwtby","kangaroo","null","<div style=""font-size:60px; color: black;"">+</div>","","","","","","","","","","",""
"","null","image-keyboard-response","142","2.0.0","203020","puwua1qwtby","kangaroo","null","stimuli\EXEMPLAR\USED\Ebrick1.jpg","","","","","Memory","false","null","","","",""
"","null","html-keyboard-response","143","2.0.0","203523","puwua1qwtby","kangaroo","null","<div style=""font-size:60px; color: black;"">+</div>","","","","","","","","","","",""
"","null","image-keyboard-response","144","2.0.0","205527","puwua1qwtby","kangaroo","null","stimuli\EXEMPLAR\USED\Ebonzai2.jpg","","","","","Memory","false","null","","","",""
"","null","html-keyboard-response","145","2.0.0","206030","puwua1qwtby","kangaroo","null","<div style=""font-size:60px; color: black;"">+</div>","","","","","","","","","","",""
"","788","image-keyboard-response","146","2.0.0","208033","puwua1qwtby","kangaroo"," ","stimuli\STATE\USED\Sscales1.jpg","","","","","Memory","true","true","","","",""
"","null","html-keyboard-response","147","2.0.0","208536","puwua1qwtby","kangaroo","null","<div style=""font-size:60px; color: green;"">+</div>","","","","","","","","","","",""
"","null","image-keyboard-response","148","2.0.0","210540","puwua1qwtby","kangaroo","null","stimuli\EXEMPLAR\USED\Ecalculator2.jpg","","","","","Memory","false","null","","","",""
"","null","html-keyboard-response","149","2.0.0","211042","puwua1qwtby","kangaroo","null","<div style=""font-size:60px; color: black;"">+</div>","","","","","","","","","","",""
"","null","image-keyboard-response","150","2.0.0","213045","puwua1qwtby","kangaroo","null","stimuli\STATE\USED\Sdishes1.JPG","","","","","Memory","false","null","","","",""
"","null","html-keyboard-response","151","2.0.0","213548","puwua1qwtby","kangaroo","null","<div style=""font-size:60px; color: black;"">+</div>","","","","","","","","","","",""
"","null","image-keyboard-response","152","2.0.0","215552","puwua1qwtby","kangaroo","null","stimuli\EXEMPLAR\USED\Econe1.jpg","","","","","Memory","false","null","","","",""
"","null","html-keyboard-response","153","2.0.0","216055","puwua1qwtby","kangaroo","null","<div style=""font-size:60px; color: black;"">+</div>","","","","","","","","","","",""
"","null","image-keyboard-response","154","2.0.0","218058","puwua1qwtby","kangaroo","null","stimuli\EXEMPLAR\USED\Echopsticks1.jpg","","","","","Memory","false","null","","","",""
"","null","html-keyboard-response","155","2.0.0","218560","puwua1qwtby","kangaroo","null","<div style=""font-size:60px; color: black;"">+</div>","","","","","","","","","","",""
"","1002","image-keyboard-response","156","2.0.0","220563","puwua1qwtby","kangaroo"," ","stimuli\EXEMPLAR\USED\Ecalculator2.jpg","","","","","Memory","true","true","","","",""
"","null","html-keyboard-response","157","2.0.0","221066","puwua1qwtby","kangaroo","null","<div style=""font-size:60px; color: green;"">+</div>","","","","","","","","","","",""
"","null","image-keyboard-response","158","2.0.0","223070","puwua1qwtby","kangaroo","null","stimuli\EXEMPLAR\USED\Ehanger2.jpg","","","","","Memory","false","null","","","",""
"","null","html-keyboard-response","159","2.0.0","223573","puwua1qwtby","kangaroo","null","<div style=""font-size:60px; color: black;"">+</div>","","","","","","","","","","",""
"","null","image-keyboard-response","160","2.0.0","225577","puwua1qwtby","kangaroo","null","stimuli\STATE\USED\Spicnicbasket2.jpg","","","","","Memory","false","null","","","",""
"","null","html-keyboard-response","161","2.0.0","226080","puwua1qwtby","kangaroo","null","<div style=""font-size:60px; color: black;"">+</div>","","","","","","","","","","",""
"","null","image-keyboard-response","162","2.0.0","228084","puwua1qwtby","kangaroo","null","stimuli\EXEMPLAR\USED\Edinosaur2.jpg","","","","","Memory","false","null","","","",""
"","null","html-keyboard-response","163","2.0.0","228586","puwua1qwtby","kangaroo","null","<div style=""font-size:60px; color: black;"">+</div>","","","","","","","","","","",""
"","null","image-keyboard-response","164","2.0.0","230590","puwua1qwtby","kangaroo","null","stimuli\STATE\USED\Sskull2.jpg","","","","","Memory","false","null","","","",""
"","null","html-keyboard-response","165","2.0.0","231093","puwua1qwtby","kangaroo","null","<div style=""font-size:60px; color: black;"">+</div>","","","","","","","","","","",""
"","null","image-keyboard-response","166","2.0.0","233097","puwua1qwtby","kangaroo","null","stimuli\EXEMPLAR\USED\Etractor2.jpg","","","","","Memory","false","null","","","",""
"","null","html-keyboard-response","167","2.0.0","233600","puwua1qwtby","kangaroo","null","<div style=""font-size:60px; color: black;"">+</div>","","","","","","","","","","",""
"","1596","image-keyboard-response","168","2.0.0","235604","puwua1qwtby","kangaroo"," ","stimuli\STATE\USED\Spicnicbasket2.jpg","","","","","Memory","true","true","","","",""
"","null","html-keyboard-response","169","2.0.0","236106","puwua1qwtby","kangaroo","null","<div style=""font-size:60px; color: green;"">+</div>","","","","","","","","","","",""
"","null","image-keyboard-response","170","2.0.0","238110","puwua1qwtby","kangaroo","null","stimuli\STATE\USED\Sgiftbox2.jpg","","","","","Memory","false","null","","","",""
"","null","html-keyboard-response","171","2.0.0","238613","puwua1qwtby","kangaroo","null","<div style=""font-size:60px; color: black;"">+</div>","","","","","","","","","","",""
"","982","image-keyboard-response","172","2.0.0","240617","puwua1qwtby","kangaroo"," ","stimuli\EXEMPLAR\USED\Earch1.jpg","","","","","Memory","false","false","","","",""
"","null","html-keyboard-response","173","2.0.0","241119","puwua1qwtby","kangaroo","null","<div style=""font-size:60px; color: red;"">+</div>","","","","","","","","","","",""
"","null","image-keyboard-response","174","2.0.0","243123","puwua1qwtby","kangaroo","null","stimuli\EXEMPLAR\USED\Etongs2.jpg","","","","","Memory","false","null","","","",""
"","null","html-keyboard-response","175","2.0.0","243625","puwua1qwtby","kangaroo","null","<div style=""font-size:60px; color: black;"">+</div>","","","","","","","","","","",""
"","null","image-keyboard-response","176","2.0.0","245628","puwua1qwtby","kangaroo","null","stimuli\STATE\USED\Sjuiceglass1.JPG","","","","","Memory","false","null","","","",""
"","null","html-keyboard-response","177","2.0.0","246131","puwua1qwtby","kangaroo","null","<div style=""font-size:60px; color: black;"">+</div>","","","","","","","","","","",""
"","null","image-keyboard-response","178","2.0.0","248135","puwua1qwtby","kangaroo","null","stimuli\STATE\USED\Sscissors1.JPG","","","","","Memory","false","null","","","",""
"","null","html-keyboard-response","179","2.0.0","248638","puwua1qwtby","kangaroo","null","<div style=""font-size:60px; color: black;"">+</div>","","","","","","","","","","",""
"","null","image-keyboard-response","180","2.0.0","250642","puwua1qwtby","kangaroo","null","stimuli\STATE\USED\Shairbrush1.jpg","","","","","Memory","false","null","","","",""
"","null","html-keyboard-response","181","2.0.0","251144","puwua1qwtby","kangaroo","null","<div style=""font-size:60px; color: black;"">+</div>","","","","","","","","","","",""
"","null","image-keyboard-response","182","2.0.0","253147","puwua1qwtby","kangaroo","null","stimuli\STATE\USED\Sbureau1.JPG","","","","","Memory","false","null","","","",""
"","null","html-keyboard-response","183","2.0.0","253649","puwua1qwtby","kangaroo","null","<div style=""font-size:60px; color: black;"">+</div>","","","","","","","","","","",""
"","775","image-keyboard-response","184","2.0.0","255652","puwua1qwtby","kangaroo"," ","stimuli\STATE\USED\Sjuiceglass1.JPG","","","","","Memory","true","true","","","",""
"","null","html-keyboard-response","185","2.0.0","256155","puwua1qwtby","kangaroo","null","<div style=""font-size:60px; color: green;"">+</div>","","","","","","","","","","",""
"","null","image-keyboard-response","186","2.0.0","258158","puwua1qwtby","kangaroo","null","stimuli\EXEMPLAR\USED\Ehelmet1.jpg","","","","","Memory","false","null","","","",""
"","null","html-keyboard-response","187","2.0.0","258660","puwua1qwtby","kangaroo","null","<div style=""font-size:60px; color: black;"">+</div>","","","","","","","","","","",""
"","null","image-keyboard-response","188","2.0.0","260663","puwua1qwtby","kangaroo","null","stimuli\STATE\USED\Saccordionsmall1.JPG","","","","","Memory","false","null","","","",""
"","null","html-keyboard-response","189","2.0.0","261164","puwua1qwtby","kangaroo","null","<div style=""font-size:60px; color: black;"">+</div>","","","","","","","","","","",""
"","null","image-keyboard-response","190","2.0.0","263167","puwua1qwtby","kangaroo","null","stimuli\STATE\USED\Swaffleiron2.jpg","","","","","Memory","false","null","","","",""
"","null","html-keyboard-response","191","2.0.0","263669","puwua1qwtby","kangaroo","null","<div style=""font-size:60px; color: black;"">+</div>","","","","","","","","","","",""
"","null","image-keyboard-response","192","2.0.0","265673","puwua1qwtby","kangaroo","null","stimuli\STATE\USED\Srainbowslice1.jpg","","","","","Memory","false","null","","","",""
"","null","html-keyboard-response","193","2.0.0","266175","puwua1qwtby","kangaroo","null","<div style=""font-size:60px; color: black;"">+</div>","","","","","","","","","","",""
"","1180","image-keyboard-response","194","2.0.0","268178","puwua1qwtby","kangaroo"," ","stimuli\EXEMPLAR\USED\Ehelmet1.jpg","","","","","Memory","true","true","","","",""
"","null","html-keyboard-response","195","2.0.0","268681","puwua1qwtby","kangaroo","null","<div style=""font-size:60px; color: green;"">+</div>","","","","","","","","","","",""
"","null","image-keyboard-response","196","2.0.0","270684","puwua1qwtby","kangaroo","null","stimuli\STATE\USED\Sdoughhands2.jpg","","","","","Memory","false","null","","","",""
"","null","html-keyboard-response","197","2.0.0","271187","puwua1qwtby","kangaroo","null","<div style=""font-size:60px; color: black;"">+</div>","","","","","","","","","","",""
"","1516","image-keyboard-response","198","2.0.0","273191","puwua1qwtby","kangaroo"," ","stimuli\STATE\USED\Saccordion2.jpg","","","","","Memory","false","false","","","",""
"","null","html-keyboard-response","199","2.0.0","273693","puwua1qwtby","kangaroo","null","<div style=""font-size:60px; color: red;"">+</div>","","","","","","","","","","",""
"","null","image-keyboard-response","200","2.0.0","275697","puwua1qwtby","kangaroo","null","stimuli\EXEMPLAR\USED\Etrowel1.jpg","","","","","Memory","false","null","","","",""
"","null","html-keyboard-response","201","2.0.0","276200","puwua1qwtby","kangaroo","null","<div style=""font-size:60px; color: black;"">+</div>","","","","","","","","","","",""
"","null","image-keyboard-response","202","2.0.0","278203","puwua1qwtby","kangaroo","null","stimuli\STATE\USED\Sseats2.jpg","","","","","Memory","false","null","","","",""
"","null","html-keyboard-response","203","2.0.0","278706","puwua1qwtby","kangaroo","null","<div style=""font-size:60px; color: black;"">+</div>","","","","","","","","","","",""
"","null","image-keyboard-response","204","2.0.0","280709","puwua1qwtby","kangaroo","null","stimuli\EXEMPLAR\USED\Esunglasses1.jpg","","","","","Memory","false","null","","","",""
"","null","html-keyboard-response","205","2.0.0","281212","puwua1qwtby","kangaroo","null","<div style=""font-size:60px; color: black;"">+</div>","","","","","","","","","","",""
"","1210","image-keyboard-response","206","2.0.0","283215","puwua1qwtby","kangaroo"," ","stimuli\STATE\USED\Saccordion2.jpg","","","","","Memory","true","true","","","",""
"","null","html-keyboard-response","207","2.0.0","283718","puwua1qwtby","kangaroo","null","<div style=""font-size:60px; color: green;"">+</div>","","","","","","","","","","",""
"","null","image-keyboard-response","208","2.0.0","285722","puwua1qwtby","kangaroo","null","stimuli\EXEMPLAR\USED\Escroll2.jpg","","","","","Memory","false","null","","","",""
"","null","html-keyboard-response","209","2.0.0","286224","puwua1qwtby","kangaroo","null","<div style=""font-size:60px; color: black;"">+</div>","","","","","","","","","","",""
"","1658","html-button-response","210","2.0.0","287884","puwua1qwtby","kangaroo","0","Are you still there?","","","","","Attention Check","","","","","",""
"","null","image-keyboard-response","211","2.0.0","289887","puwua1qwtby","kangaroo","null","stimuli\EXEMPLAR\USED\Eheadphones2.jpg","","","","","Memory","false","null","","","",""
"","null","html-keyboard-response","212","2.0.0","290396","puwua1qwtby","kangaroo","null","<div style=""font-size:60px; color: black;"">+</div>","","","","","","","","","","",""
"","null","image-keyboard-response","213","2.0.0","292400","puwua1qwtby","kangaroo","null","stimuli\STATE\USED\Sbrushes1.jpg","","","","","Memory","false","null","","","",""
"","null","html-keyboard-response","214","2.0.0","292903","puwua1qwtby","kangaroo","null","<div style=""font-size:60px; color: black;"">+</div>","","","","","","","","","","",""
"","null","image-keyboard-response","215","2.0.0","294907","puwua1qwtby","kangaroo","null","stimuli\STATE\USED\Smedicaltape2.jpg","","","","","Memory","false","null","","","",""
"","null","html-keyboard-response","216","2.0.0","295410","puwua1qwtby","kangaroo","null","<div style=""font-size:60px; color: black;"">+</div>","","","","","","","","","","",""
"","1217","image-keyboard-response","217","2.0.0","297413","puwua1qwtby","kangaroo"," ","stimuli\EXEMPLAR\USED\Escroll2.jpg","","","","","Memory","true","true","","","",""
"","null","html-keyboard-response","218","2.0.0","297916","puwua1qwtby","kangaroo","null","<div style=""font-size:60px; color: green;"">+</div>","","","","","","","","","","",""
"","null","image-keyboard-response","219","2.0.0","299919","puwua1qwtby","kangaroo","null","stimuli\EXEMPLAR\USED\Efishbowl2.jpg","","","","","Memory","false","null","","","",""
"","null","html-keyboard-response","220","2.0.0","300421","puwua1qwtby","kangaroo","null","<div style=""font-size:60px; color: black;"">+</div>","","","","","","","","","","",""
"","null","image-keyboard-response","221","2.0.0","302425","puwua1qwtby","kangaroo","null","stimuli\STATE\USED\Srhino2.jpg","","","","","Memory","false","null","","","",""
"","null","html-keyboard-response","222","2.0.0","302927","puwua1qwtby","kangaroo","null","<div style=""font-size:60px; color: black;"">+</div>","","","","","","","","","","",""
"","null","image-keyboard-response","223","2.0.0","304929","puwua1qwtby","kangaroo","null","stimuli\STATE\USED\Spiggybank1.jpg","","","","","Memory","false","null","","","",""
"","null","html-keyboard-response","224","2.0.0","305432","puwua1qwtby","kangaroo","null","<div style=""font-size:60px; color: black;"">+</div>","","","","","","","","","","",""
"","null","image-keyboard-response","225","2.0.0","307435","puwua1qwtby","kangaroo","null","stimuli\STATE\USED\Sbelt1.jpg","","","","","Memory","false","null","","","",""
"","null","html-keyboard-response","226","2.0.0","307938","puwua1qwtby","kangaroo","null","<div style=""font-size:60px; color: black;"">+</div>","","","","","","","","","","",""
"","1098","image-keyboard-response","227","2.0.0","309941","puwua1qwtby","kangaroo"," ","stimuli\EXEMPLAR\USED\Efishbowl2.jpg","","","","","Memory","true","true","","","",""
"","null","html-keyboard-response","228","2.0.0","310443","puwua1qwtby","kangaroo","null","<div style=""font-size:60px; color: green;"">+</div>","","","","","","","","","","",""
"","null","image-keyboard-response","229","2.0.0","312447","puwua1qwtby","kangaroo","null","stimuli\EXEMPLAR\USED\Emoney2.jpg","","","","","Memory","false","null","","","",""
"","null","html-keyboard-response","230","2.0.0","312950","puwua1qwtby","kangaroo","null","<div style=""font-size:60px; color: black;"">+</div>","","","","","","","","","","",""
"","null","image-keyboard-response","231","2.0.0","314954","puwua1qwtby","kangaroo","null","stimuli\EXEMPLAR\USED\Estarfish2.jpg","","","","","Memory","false","null","","","",""
"","null","html-keyboard-response","232","2.0.0","315457","puwua1qwtby","kangaroo","null","<div style=""font-size:60px; color: black;"">+</div>","","","","","","","","","","",""
"","null","image-keyboard-response","233","2.0.0","317460","puwua1qwtby","kangaroo","null","stimuli\EXEMPLAR\USED\Eballoon1.jpg","","","","","Memory","false","null","","","",""
"","null","html-keyboard-response","234","2.0.0","317962","puwua1qwtby","kangaroo","null","<div style=""font-size:60px; color: black;"">+</div>","","","","","","","","","","",""
"","null","image-keyboard-response","235","2.0.0","319966","puwua1qwtby","kangaroo","null","stimuli\EXEMPLAR\USED\Ehotairballoon1.jpg","","","","","Memory","false","null","","","",""
"","null","html-keyboard-response","236","2.0.0","320468","puwua1qwtby","kangaroo","null","<div style=""font-size:60px; color: black;"">+</div>","","","","","","","","","","",""
"","null","image-keyboard-response","237","2.0.0","322472","puwua1qwtby","kangaroo","null","stimuli\EXEMPLAR\USED\Ewheelchair2.jpg","","","","","Memory","false","null","","","",""
"","null","html-keyboard-response","238","2.0.0","322975","puwua1qwtby","kangaroo","null","<div style=""font-size:60px; color: black;"">+</div>","","","","","","","","","","",""
"","null","image-keyboard-response","239","2.0.0","324978","puwua1qwtby","kangaroo","null","stimuli\STATE\USED\Scoffeemaker1.JPG","","","","","Memory","false","null","","","",""
"","null","html-keyboard-response","240","2.0.0","325481","puwua1qwtby","kangaroo","null","<div style=""font-size:60px; color: black;"">+</div>","","","","","","","","","","",""
"","1282","image-keyboard-response","241","2.0.0","327484","puwua1qwtby","kangaroo"," ","stimuli\EXEMPLAR\USED\Eballoon1.jpg","","","","","Memory","true","true","","","",""
"","null","html-keyboard-response","242","2.0.0","327987","puwua1qwtby","kangaroo","null","<div style=""font-size:60px; color: green;"">+</div>","","","","","","","","","","",""
"","null","image-keyboard-response","243","2.0.0","329990","puwua1qwtby","kangaroo","null","stimuli\EXEMPLAR\USED\Erabbit1.jpg","","","","","Memory","false","null","","","",""
"","null","html-keyboard-response","244","2.0.0","330492","puwua1qwtby","kangaroo","null","<div style=""font-size:60px; color: black;"">+</div>","","","","","","","","","","",""
"","null","image-keyboard-response","245","2.0.0","332495","puwua1qwtby","kangaroo","null","stimuli\STATE\USED\Sbox1.jpg","","","","","Memory","false","null","","","",""
"","null","html-keyboard-response","246","2.0.0","332998","puwua1qwtby","kangaroo","null","<div style=""font-size:60px; color: black;"">+</div>","","","","","","","","","","",""
"","null","image-keyboard-response","247","2.0.0","335001","puwua1qwtby","kangaroo","null","stimuli\EXEMPLAR\USED\Etoywrench2.jpg","","","","","Memory","false","null","","","",""
"","null","html-keyboard-response","248","2.0.0","335504","puwua1qwtby","kangaroo","null","<div style=""font-size:60px; color: black;"">+</div>","","","","","","","","","","",""
"","null","image-keyboard-response","249","2.0.0","337508","puwua1qwtby","kangaroo","null","stimuli\STATE\USED\Sapplesgreenbasket1.jpg","","","","","Memory","false","null","","","",""
"","null","html-keyboard-response","250","2.0.0","338011","puwua1qwtby","kangaroo","null","<div style=""font-size:60px; color: black;"">+</div>","","","","","","","","","","",""
"","null","image-keyboard-response","251","2.0.0","340014","puwua1qwtby","kangaroo","null","stimuli\EXEMPLAR\USED\Eremote1.jpg","","","","","Memory","false","null","","","",""
"","null","html-keyboard-response","252","2.0.0","340517","puwua1qwtby","kangaroo","null","<div style=""font-size:60px; color: black;"">+</div>","","","","","","","","","","",""
"","null","image-keyboard-response","253","2.0.0","342521","puwua1qwtby","kangaroo","null","stimuli\STATE\USED\Sdresser2.jpg","","","","","Memory","false","null","","","",""
"","null","html-keyboard-response","254","2.0.0","343023","puwua1qwtby","kangaroo","null","<div style=""font-size:60px; color: black;"">+</div>","","","","","","","","","","",""
"","826","image-keyboard-response","255","2.0.0","345026","puwua1qwtby","kangaroo"," ","stimuli\EXEMPLAR\USED\Etoywrench2.jpg","","","","","Memory","true","true","","","",""
"","null","html-keyboard-response","256","2.0.0","345529","puwua1qwtby","kangaroo","null","<div style=""font-size:60px; color: green;"">+</div>","","","","","","","","","","",""
"","null","image-keyboard-response","257","2.0.0","347533","puwua1qwtby","kangaroo","null","stimuli\STATE\USED\Shandshake2.JPG","","","","","Memory","false","null","","","",""
"","null","html-keyboard-response","258","2.0.0","348036","puwua1qwtby","kangaroo","null","<div style=""font-size:60px; color: black;"">+</div>","","","","","","","","","","",""
"","null","image-keyboard-response","259","2.0.0","350039","puwua1qwtby","kangaroo","null","stimuli\EXEMPLAR\USED\Eteapot1.JPG","","","","","Memory","false","null","","","",""
"","null","html-keyboard-response","260","2.0.0","350542","puwua1qwtby","kangaroo","null","<div style=""font-size:60px; color: black;"">+</div>","","","","","","","","","","",""
"","null","image-keyboard-response","261","2.0.0","352545","puwua1qwtby","kangaroo","null","stimuli\EXEMPLAR\USED\Emuffin2.jpg","","","","","Memory","false","null","","","",""
"","null","html-keyboard-response","262","2.0.0","353047","puwua1qwtby","kangaroo","null","<div style=""font-size:60px; color: black;"">+</div>","","","","","","","","","","",""
"","null","image-keyboard-response","263","2.0.0","355051","puwua1qwtby","kangaroo","null","stimuli\EXEMPLAR\USED\Ebinoculars1.jpg","","","","","Memory","false","null","","","",""
"","null","html-keyboard-response","264","2.0.0","355553","puwua1qwtby","kangaroo","null","<div style=""font-size:60px; color: black;"">+</div>","","","","","","","","","","",""
"","null","image-keyboard-response","265","2.0.0","357557","puwua1qwtby","kangaroo","null","stimuli\EXEMPLAR\USED\Ebicycle1.jpg","","","","","Memory","false","null","","","",""
"","null","html-keyboard-response","266","2.0.0","358060","puwua1qwtby","kangaroo","null","<div style=""font-size:60px; color: black;"">+</div>","","","","","","","","","","",""
"","694","image-keyboard-response","267","2.0.0","360062","puwua1qwtby","kangaroo"," ","stimuli\EXEMPLAR\USED\Eteapot1.JPG","","","","","Memory","true","true","","","",""
"","null","html-keyboard-response","268","2.0.0","360565","puwua1qwtby","kangaroo","null","<div style=""font-size:60px; color: green;"">+</div>","","","","","","","","","","",""
"","null","image-keyboard-response","269","2.0.0","362568","puwua1qwtby","kangaroo","null","stimuli\EXEMPLAR\USED\Ecamera2.jpg","","","","","Memory","false","null","","","",""
"","null","html-keyboard-response","270","2.0.0","363071","puwua1qwtby","kangaroo","null","<div style=""font-size:60px; color: black;"">+</div>","","","","","","","","","","",""
"","null","image-keyboard-response","271","2.0.0","365075","puwua1qwtby","kangaroo","null","stimuli\EXEMPLAR\USED\Epeppers2.jpg","","","","","Memory","false","null","","","",""
"","null","html-keyboard-response","272","2.0.0","365577","puwua1qwtby","kangaroo","null","<div style=""font-size:60px; color: black;"">+</div>","","","","","","","","","","",""
"","null","image-keyboard-response","273","2.0.0","367581","puwua1qwtby","kangaroo","null","stimuli\EXEMPLAR\USED\Epiano2.jpg","","","","","Memory","false","null","","","",""
"","null","html-keyboard-response","274","2.0.0","368083","puwua1qwtby","kangaroo","null","<div style=""font-size:60px; color: black;"">+</div>","","","","","","","","","","",""
"","null","image-keyboard-response","275","2.0.0","370087","puwua1qwtby","kangaroo","null","stimuli\STATE\USED\Snapkins1.jpg","","","","","Memory","false","null","","","",""
"","null","html-keyboard-response","276","2.0.0","370589","puwua1qwtby","kangaroo","null","<div style=""font-size:60px; color: black;"">+</div>","","","","","","","","","","",""
"","null","image-keyboard-response","277","2.0.0","372593","puwua1qwtby","kangaroo","null","stimuli\STATE\USED\Sbrie1.JPG","","","","","Memory","false","null","","","",""
"","null","html-keyboard-response","278","2.0.0","373096","puwua1qwtby","kangaroo","null","<div style=""font-size:60px; color: black;"">+</div>","","","","","","","","","","",""
"","null","image-keyboard-response","279","2.0.0","375099","puwua1qwtby","kangaroo","null","stimuli\EXEMPLAR\USED\Epeppers2.jpg","","","","","Memory","true","null","","","",""
"","null","html-keyboard-response","280","2.0.0","375602","puwua1qwtby","kangaroo","null","<div style=""font-size:60px; color: black;"">+</div>","","","","","","","","","","",""
"","null","image-keyboard-response","281","2.0.0","377605","puwua1qwtby","kangaroo","null","stimuli\EXEMPLAR\USED\Etrain1.jpg","","","","","Memory","false","null","","","",""
"","null","html-keyboard-response","282","2.0.0","378108","puwua1qwtby","kangaroo","null","<div style=""font-size:60px; color: black;"">+</div>","","","","","","","","","","",""
"","null","image-keyboard-response","283","2.0.0","380112","puwua1qwtby","kangaroo","null","stimuli\EXEMPLAR\USED\Etrophy2.jpg","","","","","Memory","false","null","","","",""
"","null","html-keyboard-response","284","2.0.0","380615","puwua1qwtby","kangaroo","null","<div style=""font-size:60px; color: black;"">+</div>","","","","","","","","","","",""
"","null","image-keyboard-response","285","2.0.0","382618","puwua1qwtby","kangaroo","null","stimuli\EXEMPLAR\USED\Emedal1.jpg","","","","","Memory","false","null","","","",""
"","null","html-keyboard-response","286","2.0.0","383120","puwua1qwtby","kangaroo","null","<div style=""font-size:60px; color: black;"">+</div>","","","","","","","","","","",""
"","null","image-keyboard-response","287","2.0.0","385124","puwua1qwtby","kangaroo","null","stimuli\STATE\USED\Spatiotable2.jpg","","","","","Memory","false","null","","","",""
"","null","html-keyboard-response","288","2.0.0","385627","puwua1qwtby","kangaroo","null","<div style=""font-size:60px; color: black;"">+</div>","","","","","","","","","","",""
"","null","image-keyboard-response","289","2.0.0","387630","puwua1qwtby","kangaroo","null","stimuli\EXEMPLAR\USED\Eglobe2.jpg","","","","","Memory","false","null","","","",""
"","null","html-keyboard-response","290","2.0.0","388138","puwua1qwtby","kangaroo","null","<div style=""font-size:60px; color: black;"">+</div>","","","","","","","","","","",""
"","null","image-keyboard-response","291","2.0.0","390142","puwua1qwtby","kangaroo","null","stimuli\STATE\USED\Sdie1.jpg","","","","","Memory","false","null","","","",""
"","null","html-keyboard-response","292","2.0.0","390644","puwua1qwtby","kangaroo","null","<div style=""font-size:60px; color: black;"">+</div>","","","","","","","","","","",""
"","null","image-keyboard-response","293","2.0.0","392647","puwua1qwtby","kangaroo","null","stimuli\EXEMPLAR\USED\Emitt2.jpg","","","","","Memory","false","null","","","",""
"","null","html-keyboard-response","294","2.0.0","393150","puwua1qwtby","kangaroo","null","<div style=""font-size:60px; color: black;"">+</div>","","","","","","","","","","",""
"","null","image-keyboard-response","295","2.0.0","395153","puwua1qwtby","kangaroo","null","stimuli\STATE\USED\Stypewriter1.jpg","","","","","Memory","false","null","","","",""
"","null","html-keyboard-response","296","2.0.0","395656","puwua1qwtby","kangaroo","null","<div style=""font-size:60px; color: black;"">+</div>","","","","","","","","","","",""
"","null","image-keyboard-response","297","2.0.0","397660","puwua1qwtby","kangaroo","null","stimuli\STATE\USED\Sboxwhite2.jpg","","","","","Memory","false","null","","","",""
"","null","html-keyboard-response","298","2.0.0","398162","puwua1qwtby","kangaroo","null","<div style=""font-size:60px; color: black;"">+</div>","","","","","","","","","","",""
"","null","image-keyboard-response","299","2.0.0","400166","puwua1qwtby","kangaroo","null","stimuli\EXEMPLAR\USED\Ebracelet1.jpg","","","","","Memory","false","null","","","",""
"","null","html-keyboard-response","300","2.0.0","400669","puwua1qwtby","kangaroo","null","<div style=""font-size:60px; color: black;"">+</div>","","","","","","","","","","",""
"","965","image-keyboard-response","301","2.0.0","402672","puwua1qwtby","kangaroo"," ","stimuli\EXEMPLAR\USED\Emitt2.jpg","","","","","Memory","true","true","","","",""
"","null","html-keyboard-response","302","2.0.0","403175","puwua1qwtby","kangaroo","null","<div style=""font-size:60px; color: green;"">+</div>","","","","","","","","","","",""
"","null","image-keyboard-response","303","2.0.0","405178","puwua1qwtby","kangaroo","null","stimuli\STATE\USED\Seggplant1.jpg","","","","","Memory","false","null","","","",""
"","null","html-keyboard-response","304","2.0.0","405681","puwua1qwtby","kangaroo","null","<div style=""font-size:60px; color: black;"">+</div>","","","","","","","","","","",""
"","null","image-keyboard-response","305","2.0.0","407684","puwua1qwtby","kangaroo","null","stimuli\STATE\USED\Ssweater1.jpg","","","","","Memory","false","null","","","",""
"","null","html-keyboard-response","306","2.0.0","408186","puwua1qwtby","kangaroo","null","<div style=""font-size:60px; color: black;"">+</div>","","","","","","","","","","",""
"","null","image-keyboard-response","307","2.0.0","410190","puwua1qwtby","kangaroo","null","stimuli\EXEMPLAR\USED\Egame2.jpg","","","","","Memory","false","null","","","",""
"","null","html-keyboard-response","308","2.0.0","410693","puwua1qwtby","kangaroo","null","<div style=""font-size:60px; color: black;"">+</div>","","","","","","","","","","",""
"","null","image-keyboard-response","309","2.0.0","412697","puwua1qwtby","kangaroo","null","stimuli\EXEMPLAR\USED\Ebell2.jpg","","","","","Memory","false","null","","","",""
"","null","html-keyboard-response","310","2.0.0","413199","puwua1qwtby","kangaroo","null","<div style=""font-size:60px; color: black;"">+</div>","","","","","","","","","","",""
"","null","image-keyboard-response","311","2.0.0","415203","puwua1qwtby","kangaroo","null","stimuli\EXEMPLAR\USED\Ekayak2.jpg","","","","","Memory","false","null","","","",""
"","null","html-keyboard-response","312","2.0.0","415706","puwua1qwtby","kangaroo","null","<div style=""font-size:60px; color: black;"">+</div>","","","","","","","","","","",""
"","1632","html-button-response","313","2.0.0","417340","puwua1qwtby","kangaroo","0","Are you still there?","","","","","Attention Check","","","","","",""
"","1477","image-keyboard-response","314","2.0.0","419344","puwua1qwtby","kangaroo"," ","stimuli\EXEMPLAR\USED\Epliers1.jpg","","","","","Memory","false","false","","","",""
"","null","html-keyboard-response","315","2.0.0","419846","puwua1qwtby","kangaroo","null","<div style=""font-size:60px; color: red;"">+</div>","","","","","","","","","","",""
"","null","image-keyboard-response","316","2.0.0","421850","puwua1qwtby","kangaroo","null","stimuli\STATE\USED\Sclipboard1.jpg","","","","","Memory","false","null","","","",""
"","null","html-keyboard-response","317","2.0.0","422353","puwua1qwtby","kangaroo","null","<div style=""font-size:60px; color: black;"">+</div>","","","","","","","","","","",""
"","null","image-keyboard-response","318","2.0.0","424356","puwua1qwtby","kangaroo","null","stimuli\STATE\USED\Sflask1.jpg","","","","","Memory","false","null","","","",""
"","null","html-keyboard-response","319","2.0.0","424859","puwua1qwtby","kangaroo","null","<div style=""font-size:60px; color: black;"">+</div>","","","","","","","","","","",""
"","null","image-keyboard-response","320","2.0.0","426863","puwua1qwtby","kangaroo","null","stimuli\EXEMPLAR\USED\Elei1.jpg","","","","","Memory","false","null","","","",""
"","null","html-keyboard-response","321","2.0.0","427366","puwua1qwtby","kangaroo","null","<div style=""font-size:60px; color: black;"">+</div>","","","","","","","","","","",""
"","null","image-keyboard-response","322","2.0.0","429370","puwua1qwtby","kangaroo","null","stimuli\STATE\USED\Spadlock2.jpg","","","","","Memory","false","null","","","",""
"","null","html-keyboard-response","323","2.0.0","429873","puwua1qwtby","kangaroo","null","<div style=""font-size:60px; color: black;"">+</div>","","","","","","","","","","",""
"","1233","image-keyboard-response","324","2.0.0","431877","puwua1qwtby","kangaroo"," ","stimuli\EXEMPLAR\USED\Ehoe1.jpg","","","","","Memory","false","false","","","",""
"","null","html-keyboard-response","325","2.0.0","432379","puwua1qwtby","kangaroo","null","<div style=""font-size:60px; color: red;"">+</div>","","","","","","","","","","",""
"","null","image-keyboard-response","326","2.0.0","434383","puwua1qwtby","kangaroo","null","stimuli\EXEMPLAR\USED\Etoyplane1.jpg","","","","","Memory","false","null","","","",""
"","null","html-keyboard-response","327","2.0.0","434885","puwua1qwtby","kangaroo","null","<div style=""font-size:60px; color: black;"">+</div>","","","","","","","","","","",""
"","null","image-keyboard-response","328","2.0.0","436888","puwua1qwtby","kangaroo","null","stimuli\EXEMPLAR\USED\Ebunny2.jpg","","","","","Memory","false","null","","","",""
"","null","html-keyboard-response","329","2.0.0","437390","puwua1qwtby","kangaroo","null","<div style=""font-size:60px; color: black;"">+</div>","","","","","","","","","","",""
"","1522","image-keyboard-response","330","2.0.0","439393","puwua1qwtby","kangaroo"," ","stimuli\EXEMPLAR\USED\Eremover2.jpg","","","","","Memory","false","false","","","",""
"","null","html-keyboard-response","331","2.0.0","439896","puwua1qwtby","kangaroo","null","<div style=""font-size:60px; color: red;"">+</div>","","","","","","","","","","",""
"","null","image-keyboard-response","332","2.0.0","441899","puwua1qwtby","kangaroo","null","stimuli\EXEMPLAR\USED\Esuitcase1.jpg","","","","","Memory","false","null","","","",""
"","null","html-keyboard-response","333","2.0.0","442402","puwua1qwtby","kangaroo","null","<div style=""font-size:60px; color: black;"">+</div>","","","","","","","","","","",""
"","null","image-keyboard-response","334","2.0.0","444405","puwua1qwtby","kangaroo","null","stimuli\STATE\USED\Sseatbelt2.jpg","","","","","Memory","false","null","","","",""
"","null","html-keyboard-response","335","2.0.0","444907","puwua1qwtby","kangaroo","null","<div style=""font-size:60px; color: black;"">+</div>","","","","","","","","","","",""
"","null","image-keyboard-response","336","2.0.0","446911","puwua1qwtby","kangaroo","null","stimuli\EXEMPLAR\USED\Eelectricbass1.jpg","","","","","Memory","false","null","","","",""
"","null","html-keyboard-response","337","2.0.0","447414","puwua1qwtby","kangaroo","null","<div style=""font-size:60px; color: black;"">+</div>","","","","","","","","","","",""
"","null","image-keyboard-response","338","2.0.0","449417","puwua1qwtby","kangaroo","null","stimuli\EXEMPLAR\USED\Ehorn2.jpg","","","","","Memory","false","null","","","",""
"","null","html-keyboard-response","339","2.0.0","449920","puwua1qwtby","kangaroo","null","<div style=""font-size:60px; color: black;"">+</div>","","","","","","","","","","",""
"","null","image-keyboard-response","340","2.0.0","451923","puwua1qwtby","kangaroo","null","stimuli\STATE\USED\Sdrum2.jpg","","","","","Memory","false","null","","","",""
"","null","html-keyboard-response","341","2.0.0","452426","puwua1qwtby","kangaroo","null","<div style=""font-size:60px; color: black;"">+</div>","","","","","","","","","","",""
"","null","image-keyboard-response","342","2.0.0","454435","puwua1qwtby","kangaroo","null","stimuli\STATE\USED\Smetronome2.JPG","","","","","Memory","false","null","","","",""
"","null","html-keyboard-response","343","2.0.0","454937","puwua1qwtby","kangaroo","null","<div style=""font-size:60px; color: black;"">+</div>","","","","","","","","","","",""
"","1429","image-keyboard-response","344","2.0.0","456941","puwua1qwtby","kangaroo"," ","stimuli\EXEMPLAR\USED\Eelectricbass1.jpg","","","","","Memory","true","true","","","",""
"","null","html-keyboard-response","345","2.0.0","457443","puwua1qwtby","kangaroo","null","<div style=""font-size:60px; color: green;"">+</div>","","","","","","","","","","",""
"","null","image-keyboard-response","346","2.0.0","459446","puwua1qwtby","kangaroo","null","stimuli\EXEMPLAR\USED\Erazor2.jpg","","","","","Memory","false","null","","","",""
"","null","html-keyboard-response","347","2.0.0","459949","puwua1qwtby","kangaroo","null","<div style=""font-size:60px; color: black;"">+</div>","","","","","","","","","","",""
"","8174","html-keyboard-response","348","2.0.0","468124","puwua1qwtby","kangaroo"," ","
          <p>In the next part of this experiment, you will see 2 images. Please select the image that you recall from the image stream.</p>
          <p>You will also rate your confidence for each image you recall.</p>
          <p>Press any key to start.</p>
        ","","","","","","","","","","",""
"","3629","html-button-response","349","2.0.0","471755","puwua1qwtby","kangaroo","1","Which of these items did you see before?","","","","","Test","","true","[""stimuli\\STATE\\USED\\Sbriefcasemetal1.JPG"",""stimuli\\STATE\\USED\\Sbriefcasemetal2.JPG""]","stimuli\STATE\USED\Sbriefcasemetal2.JPG","stimuli\STATE\USED\Sbriefcasemetal2.JPG",""
"","3075","image-slider-response","350","2.0.0","474833","puwua1qwtby","kangaroo","5","stimuli\STATE\USED\Sbriefcasemetal2.JPG","","","","","","","","","","","3"
"","1528","html-button-response","351","2.0.0","476363","puwua1qwtby","kangaroo","0","Which of these items did you see before?","","","","","Test","","true","[""stimuli\\STATE\\USED\\Sumbrella1.jpg"",""stimuli\\STATE\\USED\\Sumbrella2.jpg""]","stimuli\STATE\USED\Sumbrella1.jpg","stimuli\STATE\USED\Sumbrella1.jpg",""
"","2171","image-slider-response","352","2.0.0","478537","puwua1qwtby","kangaroo","5","stimuli\STATE\USED\Sumbrella1.jpg","","","","","","","","","","","3"
"","1623","html-button-response","353","2.0.0","480162","puwua1qwtby","kangaroo","1","Which of these items did you see before?","","","","","Test","","true","[""stimuli\\EXEMPLAR\\USED\\Etoyhand2.jpg"",""stimuli\\EXEMPLAR\\USED\\Etoyhand1.jpg""]","stimuli\EXEMPLAR\USED\Etoyhand1.jpg","stimuli\EXEMPLAR\USED\Etoyhand1.jpg",""
"","1613","image-slider-response","354","2.0.0","481777","puwua1qwtby","kangaroo","5","stimuli\EXEMPLAR\USED\Etoyhand1.jpg","","","","","","","","","","","3"
"","1325","html-button-response","355","2.0.0","483104","puwua1qwtby","kangaroo","1","Which of these items did you see before?","","","","","Test","","true","[""stimuli\\EXEMPLAR\\USED\\Estapler2.jpg"",""stimuli\\EXEMPLAR\\USED\\Estapler1.jpg""]","stimuli\EXEMPLAR\USED\Estapler1.jpg","stimuli\EXEMPLAR\USED\Estapler1.jpg",""
"","1833","image-slider-response","356","2.0.0","484940","puwua1qwtby","kangaroo","5","stimuli\EXEMPLAR\USED\Estapler1.jpg","","","","","","","","","","","3"
"","2844","html-button-response","357","2.0.0","487786","puwua1qwtby","kangaroo","1","Which of these items did you see before?","","","","","Test","","false","[""stimuli\\EXEMPLAR\\USED\\Emuffler1.jpg"",""stimuli\\EXEMPLAR\\USED\\Emuffler2.jpg""]","stimuli\EXEMPLAR\USED\Emuffler1.jpg","stimuli\EXEMPLAR\USED\Emuffler2.jpg",""
"","4722","image-slider-response","358","2.0.0","492511","puwua1qwtby","kangaroo","3","stimuli\EXEMPLAR\USED\Emuffler2.jpg","","","","","","","","","","","3"
"","2986","html-button-response","359","2.0.0","495499","puwua1qwtby","kangaroo","0","Which of these items did you see before?","","","","","Test","","true","[""stimuli\\STATE\\USED\\Sseats2.jpg"",""stimuli\\STATE\\USED\\Sseats1.jpg""]","stimuli\STATE\USED\Sseats2.jpg","stimuli\STATE\USED\Sseats2.jpg",""
"","1536","image-slider-response","360","2.0.0","497038","puwua1qwtby","kangaroo","5","stimuli\STATE\USED\Sseats2.jpg","","","","","","","","","","","3"
"","3092","html-button-response","361","2.0.0","500132","puwua1qwtby","kangaroo","0","Which of these items did you see before?","","","","","Test","","true","[""stimuli\\EXEMPLAR\\USED\\Ebread2.jpg"",""stimuli\\EXEMPLAR\\USED\\Ebread1.jpg""]","stimuli\EXEMPLAR\USED\Ebread2.jpg","stimuli\EXEMPLAR\USED\Ebread2.jpg",""
"","1455","image-slider-response","362","2.0.0","501590","puwua1qwtby","kangaroo","4","stimuli\EXEMPLAR\USED\Ebread2.jpg","","","","","","","","","","","3"
"","2874","html-button-response","363","2.0.0","504466","puwua1qwtby","kangaroo","0","Which of these items did you see before?","","","","","Test","","true","[""stimuli\\STATE\\USED\\Scontainer2.JPG"",""stimuli\\STATE\\USED\\Scontainer1.JPG""]","stimuli\STATE\USED\Scontainer2.JPG","stimuli\STATE\USED\Scontainer2.JPG",""
"","1695","image-slider-response","364","2.0.0","506163","puwua1qwtby","kangaroo","2","stimuli\STATE\USED\Scontainer2.JPG","","","","","","","","","","","3"
"","3897","html-button-response","365","2.0.0","510063","puwua1qwtby","kangaroo","1","Which of these items did you see before?","","","","","Test","","true","[""stimuli\\STATE\\USED\\Sgiftbag1.jpg"",""stimuli\\STATE\\USED\\Sgiftbag2.jpg""]","stimuli\STATE\USED\Sgiftbag2.jpg","stimuli\STATE\USED\Sgiftbag2.jpg",""
"","1885","image-slider-response","366","2.0.0","511951","puwua1qwtby","kangaroo","2","stimuli\STATE\USED\Sgiftbag2.jpg","","","","","","","","","","","3"
"","5814","html-button-response","367","2.0.0","517767","puwua1qwtby","kangaroo","0","Which of these items did you see before?","","","","","Test","","true","[""stimuli\\STATE\\USED\\Sflask1.jpg"",""stimuli\\STATE\\USED\\Sflask2.jpg""]","stimuli\STATE\USED\Sflask1.jpg","stimuli\STATE\USED\Sflask1.jpg",""
"","1829","image-slider-response","368","2.0.0","519598","puwua1qwtby","kangaroo","2","stimuli\STATE\USED\Sflask1.jpg","","","","","","","","","","","3"
"","1020","html-button-response","369","2.0.0","520620","puwua1qwtby","kangaroo","0","Which of these items did you see before?","","","","","Test","","true","[""stimuli\\EXEMPLAR\\USED\\Ekayak2.jpg"",""stimuli\\EXEMPLAR\\USED\\Ekayak1.jpg""]","stimuli\EXEMPLAR\USED\Ekayak2.jpg","stimuli\EXEMPLAR\USED\Ekayak2.jpg",""
"","2249","image-slider-response","370","2.0.0","522871","puwua1qwtby","kangaroo","5","stimuli\EXEMPLAR\USED\Ekayak2.jpg","","","","","","","","","","","3"
"","992","html-button-response","371","2.0.0","523865","puwua1qwtby","kangaroo","0","Which of these items did you see before?","","","","","Test","","true","[""stimuli\\STATE\\USED\\Stiger1.jpg"",""stimuli\\STATE\\USED\\Stiger2.jpg""]","stimuli\STATE\USED\Stiger1.jpg","stimuli\STATE\USED\Stiger1.jpg",""
"","1473","image-slider-response","372","2.0.0","525341","puwua1qwtby","kangaroo","5","stimuli\STATE\USED\Stiger1.jpg","","","","","","","","","","","3"
"","2110","html-button-response","373","2.0.0","527454","puwua1qwtby","kangaroo","0","Which of these items did you see before?","","","","","Test","","true","[""stimuli\\EXEMPLAR\\USED\\Ehorn2.jpg"",""stimuli\\EXEMPLAR\\USED\\Ehorn1.jpg""]","stimuli\EXEMPLAR\USED\Ehorn2.jpg","stimuli\EXEMPLAR\USED\Ehorn2.jpg",""
"","1531","image-slider-response","374","2.0.0","528987","puwua1qwtby","kangaroo","2","stimuli\EXEMPLAR\USED\Ehorn2.jpg","","","","","","","","","","","3"
"","1244","html-button-response","375","2.0.0","530234","puwua1qwtby","kangaroo","0","Which of these items did you see before?","","","","","Test","","true","[""stimuli\\STATE\\USED\\Siron1.jpg"",""stimuli\\STATE\\USED\\Siron2.jpg""]","stimuli\STATE\USED\Siron1.jpg","stimuli\STATE\USED\Siron1.jpg",""
"","1996","image-slider-response","376","2.0.0","532233","puwua1qwtby","kangaroo","5","stimuli\STATE\USED\Siron1.jpg","","","","","","","","","","","3"
"","1954","html-button-response","377","2.0.0","534189","puwua1qwtby","kangaroo","0","Which of these items did you see before?","","","","","Test","","true","[""stimuli\\EXEMPLAR\\USED\\Emoney2.jpg"",""stimuli\\EXEMPLAR\\USED\\Emoney1.jpg""]","stimuli\EXEMPLAR\USED\Emoney2.jpg","stimuli\EXEMPLAR\USED\Emoney2.jpg",""
"","2630","image-slider-response","378","2.0.0","536823","puwua1qwtby","kangaroo","3","stimuli\EXEMPLAR\USED\Emoney2.jpg","","","","","","","","","","","3"
"","931","html-button-response","379","2.0.0","537756","puwua1qwtby","kangaroo","1","Which of these items did you see before?","","","","","Test","","true","[""stimuli\\EXEMPLAR\\USED\\Epiano1.jpg"",""stimuli\\EXEMPLAR\\USED\\Epiano2.jpg""]","stimuli\EXEMPLAR\USED\Epiano2.jpg","stimuli\EXEMPLAR\USED\Epiano2.jpg",""
"","2153","image-slider-response","380","2.0.0","539912","puwua1qwtby","kangaroo","2","stimuli\EXEMPLAR\USED\Epiano2.jpg","","","","","","","","","","","3"
"","2460","html-button-response","381","2.0.0","542374","puwua1qwtby","kangaroo","0","Which of these items did you see before?","","","","","Test","","true","[""stimuli\\STATE\\USED\\Sbrushes1.jpg"",""stimuli\\STATE\\USED\\Sbrushes2.jpg""]","stimuli\STATE\USED\Sbrushes1.jpg","stimuli\STATE\USED\Sbrushes1.jpg",""
"","1487","image-slider-response","382","2.0.0","543864","puwua1qwtby","kangaroo","2","stimuli\STATE\USED\Sbrushes1.jpg","","","","","","","","","","","3"
"","1339","html-button-response","383","2.0.0","545204","puwua1qwtby","kangaroo","0","Which of these items did you see before?","","","","","Test","","false","[""stimuli\\STATE\\USED\\Snapkins2.jpg"",""stimuli\\STATE\\USED\\Snapkins1.jpg""]","stimuli\STATE\USED\Snapkins1.jpg","stimuli\STATE\USED\Snapkins2.jpg",""
"","1901","image-slider-response","384","2.0.0","547108","puwua1qwtby","kangaroo","4","stimuli\STATE\USED\Snapkins2.jpg","","","","","","","","","","","3"
"","2542","html-button-response","385","2.0.0","549652","puwua1qwtby","kangaroo","0","Which of these items did you see before?","","","","","Test","","true","[""stimuli\\STATE\\USED\\Saccordionsmall1.JPG"",""stimuli\\STATE\\USED\\Saccordionsmall2.JPG""]","stimuli\STATE\USED\Saccordionsmall1.JPG","stimuli\STATE\USED\Saccordionsmall1.JPG",""
"","2005","image-slider-response","386","2.0.0","551660","puwua1qwtby","kangaroo","2","stimuli\STATE\USED\Saccordionsmall1.JPG","","","","","","","","","","","3"
"","4613","html-button-response","387","2.0.0","556274","puwua1qwtby","kangaroo","1","Which of these items did you see before?","","","","","Test","","true","[""stimuli\\EXEMPLAR\\USED\\Emicroscope2.jpg"",""stimuli\\EXEMPLAR\\USED\\Emicroscope1.jpg""]","stimuli\EXEMPLAR\USED\Emicroscope1.jpg","stimuli\EXEMPLAR\USED\Emicroscope1.jpg",""
"","1476","image-slider-response","388","2.0.0","557753","puwua1qwtby","kangaroo","2","stimuli\EXEMPLAR\USED\Emicroscope1.jpg","","","","","","","","","","","3"
"","1069","html-button-response","389","2.0.0","558824","puwua1qwtby","kangaroo","1","Which of these items did you see before?","","","","","Test","","true","[""stimuli\\STATE\\USED\\Sdrum1.jpg"",""stimuli\\STATE\\USED\\Sdrum2.jpg""]","stimuli\STATE\USED\Sdrum2.jpg","stimuli\STATE\USED\Sdrum2.jpg",""
"","1393","image-slider-response","390","2.0.0","560219","puwua1qwtby","kangaroo","4","stimuli\STATE\USED\Sdrum2.jpg","","","","","","","","","","","3"
"","1638","html-button-response","391","2.0.0","561859","puwua1qwtby","kangaroo","0","Which of these items did you see before?","","","","","Test","","true","[""stimuli\\EXEMPLAR\\USED\\Ehoe1.jpg"",""stimuli\\EXEMPLAR\\USED\\Ehoe2.jpg""]","stimuli\EXEMPLAR\USED\Ehoe1.jpg","stimuli\EXEMPLAR\USED\Ehoe1.jpg",""
"","1584","image-slider-response","392","2.0.0","563447","puwua1qwtby","kangaroo","4","stimuli\EXEMPLAR\USED\Ehoe1.jpg","","","","","","","","","","","3"
"","975","html-button-response","393","2.0.0","564424","puwua1qwtby","kangaroo","0","Which of these items did you see before?","","","","","Test","","true","[""stimuli\\EXEMPLAR\\USED\\Etoykeys1.jpg"",""stimuli\\EXEMPLAR\\USED\\Etoykeys2.JPG""]","stimuli\EXEMPLAR\USED\Etoykeys1.jpg","stimuli\EXEMPLAR\USED\Etoykeys1.jpg",""
"","1327","image-slider-response","394","2.0.0","565754","puwua1qwtby","kangaroo","5","stimuli\EXEMPLAR\USED\Etoykeys1.jpg","","","","","","","","","","","3"
"","2073","html-button-response","395","2.0.0","567829","puwua1qwtby","kangaroo","1","Which of these items did you see before?","","","","","Test","","false","[""stimuli\\EXEMPLAR\\USED\\Efolder1.jpg"",""stimuli\\EXEMPLAR\\USED\\Efolder2.jpg""]","stimuli\EXEMPLAR\USED\Efolder1.jpg","stimuli\EXEMPLAR\USED\Efolder2.jpg",""
"","1344","image-slider-response","396","2.0.0","569176","puwua1qwtby","kangaroo","2","stimuli\EXEMPLAR\USED\Efolder2.jpg","","","","","","","","","","","3"
"","1260","html-button-response","397","2.0.0","570438","puwua1qwtby","kangaroo","0","Which of these items did you see before?","","","","","Test","","true","[""stimuli\\EXEMPLAR\\USED\\Ehelmet1.jpg"",""stimuli\\EXEMPLAR\\USED\\Ehelmet2.jpg""]","stimuli\EXEMPLAR\USED\Ehelmet1.jpg","stimuli\EXEMPLAR\USED\Ehelmet1.jpg",""
"","1370","image-slider-response","398","2.0.0","571811","puwua1qwtby","kangaroo","4","stimuli\EXEMPLAR\USED\Ehelmet1.jpg","","","","","","","","","","","3"
"","941","html-button-response","399","2.0.0","572754","puwua1qwtby","kangaroo","0","Which of these items did you see before?","","","","","Test","","true","[""stimuli\\STATE\\USED\\Sapple1.jpg"",""stimuli\\STATE\\USED\\Sapple2.jpg""]","stimuli\STATE\USED\Sapple1.jpg","stimuli\STATE\USED\Sapple1.jpg",""
"","1333","image-slider-response","400","2.0.0","574090","puwua1qwtby","kangaroo","5","stimuli\STATE\USED\Sapple1.jpg","","","","","","","","","","","3"
"","1227","html-button-response","401","2.0.0","575319","puwua1qwtby","kangaroo","1","Which of these items did you see before?","","","","","Test","","false","[""stimuli\\STATE\\USED\\Scoffeemaker1.JPG"",""stimuli\\STATE\\USED\\Scoffeemaker2.JPG""]","stimuli\STATE\USED\Scoffeemaker1.JPG","stimuli\STATE\USED\Scoffeemaker2.JPG",""
"","2740","image-slider-response","402","2.0.0","578061","puwua1qwtby","kangaroo","2","stimuli\STATE\USED\Scoffeemaker2.JPG","","","","","","","","","","","3"
"","1890","html-button-response","403","2.0.0","579954","puwua1qwtby","kangaroo","0","Which of these items did you see before?","","","","","Test","","true","[""stimuli\\STATE\\USED\\Saccordion2.jpg"",""stimuli\\STATE\\USED\\Saccordion1.jpg""]","stimuli\STATE\USED\Saccordion2.jpg","stimuli\STATE\USED\Saccordion2.jpg",""
"","1410","image-slider-response","404","2.0.0","581367","puwua1qwtby","kangaroo","4","stimuli\STATE\USED\Saccordion2.jpg","","","","","","","","","","","3"
"","1035","html-button-response","405","2.0.0","582404","puwua1qwtby","kangaroo","0","Which of these items did you see before?","","","","","Test","","true","[""stimuli\\EXEMPLAR\\USED\\Ebrick1.jpg"",""stimuli\\EXEMPLAR\\USED\\Ebrick2.jpg""]","stimuli\EXEMPLAR\USED\Ebrick1.jpg","stimuli\EXEMPLAR\USED\Ebrick1.jpg",""
"","1569","image-slider-response","406","2.0.0","583976","puwua1qwtby","kangaroo","5","stimuli\EXEMPLAR\USED\Ebrick1.jpg","","","","","","","","","","","3"
"","1532","html-button-response","407","2.0.0","585509","puwua1qwtby","kangaroo","1","Which of these items did you see before?","","","","","Test","","true","[""stimuli\\STATE\\USED\\Sskull1.jpg"",""stimuli\\STATE\\USED\\Sskull2.jpg""]","stimuli\STATE\USED\Sskull2.jpg","stimuli\STATE\USED\Sskull2.jpg",""
"","1402","image-slider-response","408","2.0.0","586914","puwua1qwtby","kangaroo","4","stimuli\STATE\USED\Sskull2.jpg","","","","","","","","","","","3"
"","2704","html-button-response","409","2.0.0","589620","puwua1qwtby","kangaroo","1","Which of these items did you see before?","","","","","Test","","true","[""stimuli\\EXEMPLAR\\USED\\Emedal2.jpg"",""stimuli\\EXEMPLAR\\USED\\Emedal1.jpg""]","stimuli\EXEMPLAR\USED\Emedal1.jpg","stimuli\EXEMPLAR\USED\Emedal1.jpg",""
"","1348","image-slider-response","410","2.0.0","590971","puwua1qwtby","kangaroo","2","stimuli\EXEMPLAR\USED\Emedal1.jpg","","","","","","","","","","","3"
"","885","html-button-response","411","2.0.0","591859","puwua1qwtby","kangaroo","0","Which of these items did you see before?","","","","","Test","","true","[""stimuli\\EXEMPLAR\\USED\\Eelectricbass1.jpg"",""stimuli\\EXEMPLAR\\USED\\Eelectricbass2.jpg""]","stimuli\EXEMPLAR\USED\Eelectricbass1.jpg","stimuli\EXEMPLAR\USED\Eelectricbass1.jpg",""
"","1532","image-slider-response","412","2.0.0","593394","puwua1qwtby","kangaroo","5","stimuli\EXEMPLAR\USED\Eelectricbass1.jpg","","","","","","","","","","","3"
"","1223","html-button-response","413","2.0.0","594618","puwua1qwtby","kangaroo","0","Which of these items did you see before?","","","","","Test","","false","[""stimuli\\STATE\\USED\\Spestle1.jpg"",""stimuli\\STATE\\USED\\Spestle2.jpg""]","stimuli\STATE\USED\Spestle2.jpg","stimuli\STATE\USED\Spestle1.jpg",""
"","2790","image-slider-response","414","2.0.0","597410","puwua1qwtby","kangaroo","2","stimuli\STATE\USED\Spestle1.jpg","","","","","","","","","","","3"
"","1780","html-button-response","415","2.0.0","599192","puwua1qwtby","kangaroo","1","Which of these items did you see before?","","","","","Test","","false","[""stimuli\\STATE\\USED\\Shairbrush1.jpg"",""stimuli\\STATE\\USED\\Shairbrush2.jpg""]","stimuli\STATE\USED\Shairbrush1.jpg","stimuli\STATE\USED\Shairbrush2.jpg",""
"","1506","image-slider-response","416","2.0.0","600700","puwua1qwtby","kangaroo","2","stimuli\STATE\USED\Shairbrush2.jpg","","","","","","","","","","","3"
"","909","html-button-response","417","2.0.0","601611","puwua1qwtby","kangaroo","0","Which of these items did you see before?","","","","","Test","","true","[""stimuli\\STATE\\USED\\Sbreadslice2.jpg"",""stimuli\\STATE\\USED\\Sbreadslice1.jpg""]","stimuli\STATE\USED\Sbreadslice2.jpg","stimuli\STATE\USED\Sbreadslice2.jpg",""
"","2296","image-slider-response","418","2.0.0","603910","puwua1qwtby","kangaroo","5","stimuli\STATE\USED\Sbreadslice2.jpg","","","","","","","","","","","3"
"","1476","html-button-response","419","2.0.0","605388","puwua1qwtby","kangaroo","1","Which of these items did you see before?","","","","","Test","","true","[""stimuli\\STATE\\USED\\Sscissors2.JPG"",""stimuli\\STATE\\USED\\Sscissors1.JPG""]","stimuli\STATE\USED\Sscissors1.JPG","stimuli\STATE\USED\Sscissors1.JPG",""
"","1162","image-slider-response","420","2.0.0","606553","puwua1qwtby","kangaroo","4","stimuli\STATE\USED\Sscissors1.JPG","","","","","","","","","","","3"
"","1035","html-button-response","421","2.0.0","607590","puwua1qwtby","kangaroo","0","Which of these items did you see before?","","","","","Test","","true","[""stimuli\\STATE\\USED\\Sbrie1.JPG"",""stimuli\\STATE\\USED\\Sbrie2.JPG""]","stimuli\STATE\USED\Sbrie1.JPG","stimuli\STATE\USED\Sbrie1.JPG",""
"","1142","image-slider-response","422","2.0.0","608734","puwua1qwtby","kangaroo","2","stimuli\STATE\USED\Sbrie1.JPG","","","","","","","","","","","3"
"","2008","html-button-response","423","2.0.0","610744","puwua1qwtby","kangaroo","1","Which of these items did you see before?","","","","","Test","","false","[""stimuli\\STATE\\USED\\Slockbox2.jpg"",""stimuli\\STATE\\USED\\Slockbox1.jpg""]","stimuli\STATE\USED\Slockbox2.jpg","stimuli\STATE\USED\Slockbox1.jpg",""
"","1230","image-slider-response","424","2.0.0","611977","puwua1qwtby","kangaroo","2","stimuli\STATE\USED\Slockbox1.jpg","","","","","","","","","","","3"
"","1810","html-button-response","425","2.0.0","613788","puwua1qwtby","kangaroo","0","Which of these items did you see before?","","","","","Test","","false","[""stimuli\\STATE\\USED\\Sgrinder1.jpg"",""stimuli\\STATE\\USED\\Sgrinder2.jpg""]","stimuli\STATE\USED\Sgrinder2.jpg","stimuli\STATE\USED\Sgrinder1.jpg",""
"","1223","image-slider-response","426","2.0.0","615014","puwua1qwtby","kangaroo","1","stimuli\STATE\USED\Sgrinder1.jpg","","","","","","","","","","","3"
"","1415","html-button-response","427","2.0.0","616431","puwua1qwtby","kangaroo","1","Which of these items did you see before?","","","","","Test","","true","[""stimuli\\STATE\\USED\\Seggplant2.jpg"",""stimuli\\STATE\\USED\\Seggplant1.jpg""]","stimuli\STATE\USED\Seggplant1.jpg","stimuli\STATE\USED\Seggplant1.jpg",""
"","3020","image-slider-response","428","2.0.0","619454","puwua1qwtby","kangaroo","5","stimuli\STATE\USED\Seggplant1.jpg","","","","","","","","","","","3"
"","1996","html-button-response","429","2.0.0","621452","puwua1qwtby","kangaroo","0","Which of these items did you see before?","","","","","Test","","false","[""stimuli\\STATE\\USED\\Sboxwhite1.jpg"",""stimuli\\STATE\\USED\\Sboxwhite2.jpg""]","stimuli\STATE\USED\Sboxwhite2.jpg","stimuli\STATE\USED\Sboxwhite1.jpg",""
"","3058","image-slider-response","430","2.0.0","624513","puwua1qwtby","kangaroo","2","stimuli\STATE\USED\Sboxwhite1.jpg","","","","","","","","","","","3"
"","3368","html-button-response","431","2.0.0","627883","puwua1qwtby","kangaroo","1","Which of these items did you see before?","","","","","Test","","true","[""stimuli\\EXEMPLAR\\USED\\Esuitcase2.jpg"",""stimuli\\EXEMPLAR\\USED\\Esuitcase1.jpg""]","stimuli\EXEMPLAR\USED\Esuitcase1.jpg","stimuli\EXEMPLAR\USED\Esuitcase1.jpg",""
"","1559","image-slider-response","432","2.0.0","629445","puwua1qwtby","kangaroo","1","stimuli\EXEMPLAR\USED\Esuitcase1.jpg","","","","","","","","","","","3"
"","1176","html-button-response","433","2.0.0","630623","puwua1qwtby","kangaroo","0","Which of these items did you see before?","","","","","Test","","true","[""stimuli\\STATE\\USED\\Sdishwasher2.jpg"",""stimuli\\STATE\\USED\\Sdishwasher1.jpg""]","stimuli\STATE\USED\Sdishwasher2.jpg","stimuli\STATE\USED\Sdishwasher2.jpg",""
"","1746","image-slider-response","434","2.0.0","632371","puwua1qwtby","kangaroo","4","stimuli\STATE\USED\Sdishwasher2.jpg","","","","","","","","","","","3"
"","874","html-button-response","435","2.0.0","633247","puwua1qwtby","kangaroo","1","Which of these items did you see before?","","","","","Test","","true","[""stimuli\\EXEMPLAR\\USED\\Escroll1.jpg"",""stimuli\\EXEMPLAR\\USED\\Escroll2.jpg""]","stimuli\EXEMPLAR\USED\Escroll2.jpg","stimuli\EXEMPLAR\USED\Escroll2.jpg",""
"","1234","image-slider-response","436","2.0.0","634484","puwua1qwtby","kangaroo","5","stimuli\EXEMPLAR\USED\Escroll2.jpg","","","","","","","","","","","3"
"","1465","html-button-response","437","2.0.0","635950","puwua1qwtby","kangaroo","1","Which of these items did you see before?","","","","","Test","","true","[""stimuli\\STATE\\USED\\Sbox2.jpg"",""stimuli\\STATE\\USED\\Sbox1.jpg""]","stimuli\STATE\USED\Sbox1.jpg","stimuli\STATE\USED\Sbox1.jpg",""
"","1723","image-slider-response","438","2.0.0","637676","puwua1qwtby","kangaroo","4","stimuli\STATE\USED\Sbox1.jpg","","","","","","","","","","","3"
"","906","html-button-response","439","2.0.0","638584","puwua1qwtby","kangaroo","1","Which of these items did you see before?","","","","","Test","","true","[""stimuli\\EXEMPLAR\\USED\\Eicecream1.jpg"",""stimuli\\EXEMPLAR\\USED\\Eicecream2.jpg""]","stimuli\EXEMPLAR\USED\Eicecream2.jpg","stimuli\EXEMPLAR\USED\Eicecream2.jpg",""
"","5524","image-slider-response","440","2.0.0","644110","puwua1qwtby","kangaroo","5","stimuli\EXEMPLAR\USED\Eicecream2.jpg","","","","","","","","","","","3"
"","3503","html-button-response","441","2.0.0","647614","puwua1qwtby","kangaroo","1","Which of these items did you see before?","","","","","Test","","true","[""stimuli\\EXEMPLAR\\USED\\Eremote2.jpg"",""stimuli\\EXEMPLAR\\USED\\Eremote1.jpg""]","stimuli\EXEMPLAR\USED\Eremote1.jpg","stimuli\EXEMPLAR\USED\Eremote1.jpg",""
"","1673","image-slider-response","442","2.0.0","649290","puwua1qwtby","kangaroo","4","stimuli\EXEMPLAR\USED\Eremote1.jpg","","","","","","","","","","","3"
"","4656","html-button-response","443","2.0.0","653948","puwua1qwtby","kangaroo","0","Which of these items did you see before?","","","","","Test","","true","[""stimuli\\STATE\\USED\\Sbarnmailbox1.jpg"",""stimuli\\STATE\\USED\\Sbarnmailbox2.jpg""]","stimuli\STATE\USED\Sbarnmailbox1.jpg","stimuli\STATE\USED\Sbarnmailbox1.jpg",""
"","4168","image-slider-response","444","2.0.0","658119","puwua1qwtby","kangaroo","1","stimuli\STATE\USED\Sbarnmailbox1.jpg","","","","","","","","","","","3"
"","3522","html-button-response","445","2.0.0","661643","puwua1qwtby","kangaroo","1","Which of these items did you see before?","","","","","Test","","true","[""stimuli\\STATE\\USED\\Spiggybank2.jpg"",""stimuli\\STATE\\USED\\Spiggybank1.jpg""]","stimuli\STATE\USED\Spiggybank1.jpg","stimuli\STATE\USED\Spiggybank1.jpg",""
"","1556","image-slider-response","446","2.0.0","663202","puwua1qwtby","kangaroo","4","stimuli\STATE\USED\Spiggybank1.jpg","","","","","","","","","","","3"
"","1500","html-button-response","447","2.0.0","664703","puwua1qwtby","kangaroo","0","Which of these items did you see before?","","","","","Test","","true","[""stimuli\\STATE\\USED\\Shandmirror1.jpg"",""stimuli\\STATE\\USED\\Shandmirror2.jpg""]","stimuli\STATE\USED\Shandmirror1.jpg","stimuli\STATE\USED\Shandmirror1.jpg",""
"","1430","image-slider-response","448","2.0.0","666137","puwua1qwtby","kangaroo","5","stimuli\STATE\USED\Shandmirror1.jpg","","","","","","","","","","","3"
"","42958","survey-text","449","2.0.0","709103","puwua1qwtby","kangaroo","{""experiment_purpose"":""Seeing whether how different an image is will impact memory recall.  "",""Q1"":""I tried to think about a unique thought for each item.  "",""technical_issues"":""No. ""}","","","","","","","","","","","",""
